,label,acc_x,acc_y,acc_z,gyro_x,gyro_y,gyro_z,azimuth,pitch,roll,max_acc_x,max_acc_y,max_acc_z,max_gyro_x,max_gyro_y,max_gyro_z,max_azimuth,max_pitch,max_roll,min_acc_x,min_acc_y,min_acc_z,min_gyro_x,min_gyro_y,min_gyro_z,min_azimuth,min_pitch,min_roll,jerk_acc_x,jerk_acc_y,jerk_acc_z,jerk_gyro_x,jerk_gyro_y,jerk_gyro_z,jerk_azimuth,jerk_pitch,jerk_roll,JerkMagAcc,JerkMagGyro,JerkMagOrient,F_acc_x,F_acc_y,F_acc_z,F_gyro_x,F_gyro_y,F_gyro_z,F_azimuth,F_pitch,F_roll,Fmax_acc_x,Fmax_acc_y,Fmax_acc_z,Fmax_gyro_x,Fmax_gyro_y,Fmax_gyro_z,Fmax_azimuth,Fmax_pitch,Fmax_roll,Fmin_acc_x,Fmin_acc_y,Fmin_acc_z,Fmin_gyro_x,Fmin_gyro_y,Fmin_gyro_z,Fmin_azimuth,Fmin_pitch,Fmin_roll,jerk_Facc_x,jerk_Facc_y,jerk_Facc_z,jerk_Fgyro_x,jerk_Fgyro_y,jerk_Fgyro_z,jerk_Fazimuth,jerk_Fpitch,jerk_Froll,F_JerkMagAcc,F_JerkMagGyro,F_JerkMagOrient
0,A1,-0.42480000000000007,9.7736,-1.0776,0.2123999999999998,-1.5088000000000006,1.878,-16.3252,-40.876,-22.086799999999997,2.36,14.64,0.65,49.0,50.94,26.0,-11.25,-24.25,-5.75,-4.01,5.28,-5.02,-61.13,-49.63,-21.37,-20.37,-57.69,-33.75,-2.8320000000000007,65.15733333333334,-7.183999999999999,1.4159999999999988,-10.05866666666667,12.52,-108.83466666666666,-272.50666666666666,-147.24533333333332,65.61332309151177,16.122413935608748,328.30786806695124,6.185732839552787,17.083810079699607,6.932752485802053,89.65687089864215,95.93457065423337,57.60702056020705,26.500533663691932,76.31811179308525,47.54319595831843,13.847661719376152,244.34000000000003,26.94,150.00948282059548,355.5474016734658,178.26143421426661,408.13,1021.9,552.1700000000001,1.048653408895153,1.5622504124176115,2.38843263973713,5.310000000000002,37.68226827404205,17.10081270451406,4.09831020713569,12.863474561761345,2.6415004842621026,41.23821893035191,113.89206719799738,46.21834990534702,597.7124726576144,639.5638043615559,384.04680373471365,176.67022442461288,508.7874119539017,316.95463972212286,129.64617055337143,955.9257331397432,624.9297899783408
0,A13,-0.5873333333333334,7.016,-5.809333333333333,-2.9419999999999997,-0.3,0.2826666666666668,-9.430666666666667,-42.71333333333334,-5.404,0.0,9.67,-1.2,53.81,16.25,6.44,-6.38,-32.25,18.69,-1.12,3.41,-9.54,-58.88,-14.31,-5.63,-13.38,-47.88,-29.69,-3.915555555555556,46.77333333333333,-38.72888888888889,-19.613333333333333,-2.0,1.8844444444444453,-62.87111111111112,-284.7555555555556,-36.02666666666667,60.85230579844657,19.80489776062078,293.8306038233763,1.5421328686360039,11.061838500380714,11.59098476324829,91.11884810438904,30.637192506876985,12.089191823484635,14.902657143024918,56.45731431059513,38.05476332709425,8.81,105.24,87.14,307.8908516233906,52.61742026166223,26.725081558719147,141.45999999999998,640.7,164.27483040590758,0.24269322199023197,0.7893415751326535,0.8322333355248752,25.124434184910438,4.499999999999998,4.24,0.36410508805703456,3.1714954325671014,3.799663594366378,10.280885790906693,73.7455900025381,77.2732317549886,607.4589873625937,204.24795004584658,80.59461215656424,99.35104762016613,376.3820954039675,253.69842218062834,107.3091841518157,645.9250250100126,464.6471799342445
0,A9,-0.915625,8.6675,-1.585,-3.343750000000001,2.90625,1.7306249999999999,44.33,-14.691875,-22.37125,1.14,10.12,4.51,50.19,55.25,42.25,47.69,-7.56,-12.75,-2.19,4.6,-6.27,-69.37,-16.56,-16.06,36.75,-24.19,-31.69,-6.104166666666667,57.78333333333334,-10.566666666666666,-22.291666666666675,19.375,11.5375,295.53333333333336,-97.94583333333334,-149.14166666666668,59.05784373180247,31.708404785289627,345.2196027380012,3.606793057159739,13.998249277842572,11.44691762760634,86.92986339470961,61.39488506405091,45.86719920794879,54.864784561570914,28.616629973003448,36.60054636202517,14.649999999999999,138.68,25.360000000000003,172.73325598454687,84.05549998458784,62.706062318891064,709.28,235.07,357.94,1.5439698271317606,2.7339451369243566,5.786521917408272,27.587406547191062,43.95865094683064,22.71,1.6360138573747984,2.950000000000003,3.4944575216924405,24.045287047731595,93.32166185228381,76.31278418404227,579.5324226313975,409.2992337603394,305.7813280529919,365.7652304104728,190.77753315335633,244.00364241350115,122.92578830335002,772.5839192111554,479.2891073708665
0,A6,-1.1372222222222221,9.206111111111111,-1.8777777777777775,2.4788888888888887,-0.9272222222222223,0.7172222222222221,33.67777777777778,-20.73888888888889,-20.607777777777777,-0.28,11.88,2.93,116.37,11.31,24.06,47.75,-7.06,-10.56,-2.48,7.42,-5.79,-77.56,-16.06,-10.94,20.5,-29.25,-26.0,-7.5814814814814815,61.37407407407408,-12.518518518518517,16.525925925925925,-6.181481481481482,4.781481481481481,224.51851851851853,-138.25925925925927,-137.38518518518518,63.094921632429894,18.280577293204924,297.31948647378806,3.029636583206677,12.860045113803238,9.935457770730546,148.25131674550866,23.356433425536906,28.46132386207611,56.751808631984176,39.735640608804346,34.46285369663242,20.47,165.71,33.8,441.7833055556418,43.904839757611136,46.32541850863302,606.2,373.3,370.94,0.8311221983919813,2.095599706520745,1.0466922497150735,12.120000000000019,2.993588518674353,6.904221787173794,1.0600000000000058,1.6296318602678415,0.4682242095902062,20.19757722137785,85.73363409202159,66.23638513820364,988.3421116367244,155.70955617024606,189.7421590805074,378.3453908798945,264.9042707253623,229.75235797754948,110.20642838062857,1018.3652009224427,515.8542947818116
0,A6,-0.7821428571428571,9.217857142857143,-2.0949999999999998,0.07071428571428637,-0.22428571428571434,-0.22428571428571434,37.02285714285715,-20.415,-19.660714285714285,1.65,11.15,1.17,94.62,12.5,19.5,48.06,-8.25,-8.88,-2.32,7.55,-6.04,-99.44,-13.5,-22.44,21.25,-30.06,-26.5,-5.214285714285714,61.452380952380956,-13.966666666666665,0.4714285714285758,-1.4952380952380957,-1.4952380952380957,246.81904761904767,-136.1,-131.07142857142858,63.234892883632966,2.1664992085993675,310.84171479280064,3.602543435462043,12.39555124098923,9.35317670900662,155.73548783113662,22.724121744190082,33.018129300158996,57.80444823441797,39.36315073671629,34.73860051185394,10.95,129.04999999999998,29.33,393.78957917441795,39.57876042086125,64.9652329727645,518.3199999999999,285.81,275.25,1.0375680081506478,0.3411070331319868,1.345422096598581,0.9900000000000091,3.139999999999997,3.1400000000000006,1.4505677361898293,0.3752583646824322,1.135786188983272,24.016956236413623,82.63700827326153,62.35451139337747,1038.236585540911,151.4941449612672,220.12086200105998,385.36298822945315,262.42100491144197,231.59067007902627,106.27217140118924,1072.072235160152,520.5801138955627
0,A2,0.031666666666666586,10.112499999999999,-1.0291666666666666,-5.125,-3.879166666666667,0.9841666666666669,23.4725,-24.223333333333333,16.7825,4.17,11.67,0.63,29.12,18.31,32.25,28.5,-19.0,31.75,-4.82,8.14,-5.62,-65.0,-51.06,-17.37,16.87,-38.06,4.69,0.21111111111111058,67.41666666666666,-6.861111111111111,-34.16666666666667,-25.861111111111114,6.561111111111113,156.48333333333335,-161.48888888888888,111.88333333333333,67.76522971277151,43.34981381764738,251.16443841327694,6.045130818096819,12.992717946408412,6.874512331435199,81.59707585357627,60.2495943053897,42.59088261951449,31.15411315750111,39.81978646939545,43.26632618929853,15.999999999999998,121.35000000000001,12.35,99.5272123592337,88.43897613609059,70.102670419892,281.67,290.68,201.39,0.3799999999999999,0.958592718520222,1.3699512929857471,55.859999999999985,32.3788773674746,11.810000000000002,1.3247097047075396,7.737073368252239,11.510000000000007,40.300872120645465,86.61811964272275,45.83008220956799,543.9805056905085,401.6639620359313,283.93921746342994,207.6940877166741,265.465243129303,288.44217459532354,105.95874376124611,733.3963513567875,443.6299330156167
0,A2,-0.7107692307692308,9.379999999999999,-0.4707692307692308,-10.706153846153846,-1.4261538461538454,-2.4576923076923083,-17.326923076923077,-42.89076923076924,-22.283076923076923,3.39,10.78,0.93,25.62,32.13,36.19,-11.75,-22.25,-7.25,-2.36,8.1,-2.53,-90.19,-55.5,-40.69,-22.75,-55.25,-28.75,-4.738461538461539,62.53333333333333,-3.1384615384615384,-71.37435897435898,-9.507692307692304,-16.38461538461539,-115.51282051282051,-285.9384615384616,-148.55384615384617,62.79108803291801,73.84545316619152,342.30433929021405,5.661271833278094,12.216343580146068,3.622323687395607,103.93486790242653,71.32580596155687,62.01380749024178,26.911999177036535,73.61484730431988,39.59390981132834,9.239999999999998,121.94000000000001,6.119999999999999,182.90211193016512,132.5353587103674,158.2890093752904,225.25,557.5799999999999,289.68,4.3541454601668885,1.2486743858445482,1.3854647631240111,3.5757248729718762,18.54,14.476434626587821,3.7025735500621835,13.371266582779564,9.015236754902483,37.74181222185396,81.44229053430712,24.14882458263738,692.8991193495102,475.5053730770458,413.42538326827855,179.41332784691025,490.76564869546587,263.9593987421889,92.9540575014731,936.5549086684615,585.4183361775767
0,A1,0.03500000000000003,9.841875,-0.5900000000000001,0.496875,-15.863750000000001,-8.43625,20.09,-30.488125,24.45375,2.79,17.46,1.13,72.0,65.12,20.19,25.25,-19.75,35.88,-1.43,7.16,-5.44,-33.81,-87.06,-108.94,13.0,-48.19,9.06,0.23333333333333356,65.6125,-3.933333333333334,3.3125,-105.75833333333334,-56.24166666666667,133.93333333333334,-203.25416666666666,163.025,65.73070600416182,119.82872274683933,292.96338452123825,3.5781103775074583,17.8846615837687,5.980075499751275,81.472371034254,150.2913612968373,117.4272826183764,32.96981132023882,57.18425922262891,47.315344476842164,8.298384220458578,157.47,9.440000000000001,160.81,257.1083035959514,168.2514673333747,321.44,487.81,391.26,0.5600000000000003,4.742471822734547,1.9064626930522413,7.949999999999989,32.56,58.12,2.5550676378789707,10.189999999999998,1.9048456805718297,23.854069183383057,119.23107722512468,39.867169998341836,543.14914022836,1001.942408645582,782.848550789176,219.79874213492548,381.22839481752607,315.4356298456144,127.96271971377429,1382.6609968629439,541.4297855080957
0,A14,-0.20000000000000004,8.961666666666666,-1.0391666666666666,-6.099166666666666,5.786666666666666,-1.6141666666666667,23.2975,-18.80666666666667,16.0,1.73,11.2,0.91,65.25,63.0,25.94,26.0,-15.0,33.38,-2.7,3.26,-3.28,-63.94,-43.38,-46.13,19.69,-29.75,3.06,-1.3333333333333337,59.74444444444444,-6.927777777777777,-40.66111111111111,38.577777777777776,-10.761111111111113,155.31666666666666,-125.3777777777778,106.66666666666667,60.159542257993934,57.073394917486794,226.3197558383184,3.975017245826532,15.63112638723851,4.762661343644792,103.47063159941325,85.80101071196066,67.88233080862386,29.439698064472868,31.881992997806126,44.02379991584374,6.58800425015042,107.53999999999999,12.469999999999999,135.1568339153674,119.82,102.17532654585308,279.57,225.68,192.0,1.971510658313868,2.2000000000000033,1.853887806745597,62.78999999999999,47.675006524009746,19.36999999999999,0.9499999999999951,6.553362285971929,13.760000000000009,26.50011497217688,104.20750924825674,31.751075624298615,689.804210662755,572.0067380797377,452.5488720574924,196.26465376315247,212.54661998537418,293.49199943895826,112.11419125411393,1003.9034012579084,412.1085217738826
0,A14,-0.38899999999999996,11.727,-2.538,25.058,13.713,13.401,-18.474,-45.451,-21.974,3.59,25.2,-0.57,271.63,115.25,161.88,-10.69,-27.87,-18.5,-4.6,9.05,-10.23,-73.12,-25.44,-19.19,-23.5,-50.19,-29.19,-2.5933333333333333,78.18,-16.919999999999998,167.05333333333334,91.42,89.34,-123.16000000000001,-303.00666666666666,-146.49333333333334,80.0320197032274,210.3474938709225,358.38767048484743,5.870230133637857,25.411092336843943,10.370588550135512,277.9358123630136,119.5709635965751,163.26091929638693,27.983313752379292,64.76004152221438,31.100624413643125,12.669999999999998,117.27,25.380000000000003,338.9434182931025,164.9622208400945,180.54226529798382,184.74,454.51,219.74,3.746408361777163,11.069999999999999,5.500000000000001,136.2,70.26888564204157,134.01,1.8818261392146678,11.009999999999994,4.193672707515376,39.134867557585714,169.4072822456263,69.13725700090342,1852.9054157534242,797.1397573105007,1088.4061286425797,186.55542501586194,431.73361014809586,207.33749609095418,187.1104632087902,2292.011817875323,513.9899551738569
0,A13,-0.30193548387096775,6.797096774193549,-6.267741935483872,2.2503225806451614,0.14096774193548384,-0.3545161290322581,-13.638064516129033,-44.9741935483871,-1.7703225806451617,0.29,9.47,-2.5,42.06,10.31,3.75,-11.88,-41.19,23.0,-0.77,3.66,-9.56,-49.69,-6.88,-6.81,-16.0,-49.0,-26.19,-2.012903225806452,45.31397849462366,-41.78494623655914,15.00215053763441,0.939784946236559,-2.363440860215054,-90.92043010752688,-299.82795698924735,-11.802150537634411,61.67163171507476,15.216227167032942,313.5324850164598,1.2183082463761112,12.431910300444246,12.563941656922355,68.50019154203811,17.428430480241484,11.546777145363572,19.090820156930068,52.67970110148928,42.981084068408755,9.36,210.70999999999992,194.29999999999998,351.8258693674204,31.828186118042368,24.96381589476328,422.78,1394.1999999999998,414.5864902476163,0.13648292171519824,0.8800407477118438,0.6103053002035222,11.914429888722145,4.369999999999999,3.396411183651573,1.2569333546756962,1.2474382596399805,1.7485445687428274,8.122054975840742,82.87940200296164,83.75961104614903,456.6679436135874,116.18953653494323,76.97851430242382,127.2721343795338,351.19800734326185,286.54056045605836,118.11280834863453,477.4634130367226,470.79053658487226
0,A13,-0.38439999999999996,6.0888,-7.1332,1.3400000000000003,0.6703999999999999,-0.28759999999999997,-13.1908,-43.9008,3.7656,-0.01,9.49,-2.58,49.13,12.69,5.0,-11.0,-37.38,22.25,-0.8,3.44,-9.52,-34.31,-5.0,-4.06,-16.5,-48.0,-24.37,-2.5626666666666664,40.592,-47.55466666666667,8.933333333333335,4.469333333333333,-1.9173333333333331,-87.93866666666666,-292.67199999999997,25.104000000000003,62.57574646955658,10.171310240082152,306.627329987252,1.1401295892529912,10.468083069319105,12.110773041002487,63.952345163115275,14.733806023578067,9.982891739171022,17.989978085118516,52.74132511246026,37.47934251488943,9.610000000000001,152.22,178.32999999999998,346.5996703965299,19.368797063466463,22.917987885517192,329.77,1097.52,299.04087307595387,0.3531984753191573,0.12415560889271252,0.24459484592828132,7.720096087910382,3.7739793912797874,2.6675646171250667,0.576775135762837,0.901465618455938,0.3404319280741131,7.6008639283532755,69.78722046212737,80.73848694001659,426.34896775410186,98.22537349052045,66.55261159447348,119.93318723412344,351.6088340830684,249.86228343259623,106.98940389426487,442.5504676445222,447.7096182656132
0,A12,0.11521739130434783,8.022173913043478,-5.16,0.831304347826087,0.8208695652173913,-0.1391304347826087,-13.599565217391305,-48.22826086956522,-15.013478260869565,0.96,9.53,-2.47,28.12,10.94,4.69,-12.19,-38.56,-4.19,-1.07,6.73,-7.94,-24.94,-11.81,-4.88,-15.69,-58.75,-24.69,0.7681159420289856,53.481159420289856,-34.400000000000006,5.542028985507247,5.472463768115942,-0.927536231884058,-90.66376811594203,-321.5217391304348,-100.08985507246378,63.593902341646384,7.8436132254849165,348.7321703985273,1.9763056166881101,11.246131653849147,9.722531264683484,52.18965601819914,24.807153452097538,10.500035927498388,17.030354489268564,63.04442936827126,32.16403258215667,5.929623293416732,184.51,118.68,165.72781171632826,52.73109788595053,14.119515966626151,312.79,1109.25,345.31,0.32932310608400583,0.7889804598457391,0.9854346598610451,14.07185842154997,10.392945162726534,3.1999999999999993,0.5102064890753146,0.8050997093298925,2.1214391970904694,13.175370777920735,74.97421102566099,64.81687509788989,347.9310401213276,165.3810230139836,70.00023951665592,113.53569659512377,420.2961957884751,214.4268838810445,99.97974800684133,391.5442822790928,485.30210706995604
0,A12,-0.06625,8.10875,-5.4875,2.9058333333333333,-1.1275000000000002,0.4220833333333333,-14.089583333333332,-49.75333333333333,-13.042083333333332,1.56,9.65,-2.13,45.25,35.94,18.81,-9.19,-38.06,3.69,-1.89,7.01,-7.28,-29.31,-48.06,-10.5,-16.25,-57.75,-27.0,-0.4416666666666667,54.05833333333334,-36.583333333333336,19.372222222222224,-7.516666666666668,2.8138888888888887,-93.93055555555554,-331.68888888888887,-86.94722222222222,65.27510053611562,20.969054396513705,355.5281813464039,2.98166035997173,11.066521277694436,9.986047023023676,71.4051068003652,74.66802679457577,28.396806376639734,21.63217865821729,63.850426917486736,36.36088141198137,4.85,194.61,131.7,205.31851432787,130.50418534874274,56.655353093729566,338.15,1194.08,313.01,0.9685749184123599,1.4454065172123636,0.08115150913963902,25.508335892409754,10.320000000000002,1.1082313877745857,3.2594480017951377,0.49426713425026636,1.1299999999999946,19.877735733144867,73.7768085179629,66.57364682015785,476.03404533576804,497.7868452971718,189.31204251093158,144.21452438811525,425.6695127832449,242.40587607987578,101.34195727292828,714.3103002962418,510.6397672681471
0,A9,0.12294117647058828,9.038823529411765,-0.9423529411764707,0.5947058823529412,3.518823529411765,2.532941176470588,37.48529411764706,-29.14823529411765,-22.878235294117648,1.98,10.52,3.01,29.37,23.12,36.19,43.0,-17.75,-10.25,-3.26,4.7,-5.14,-53.0,-1.63,-4.44,32.56,-36.56,-34.06,0.8196078431372552,60.25882352941177,-6.282352941176471,3.9647058823529413,23.458823529411767,16.886274509803922,249.90196078431373,-194.321568627451,-152.521568627451,60.590969035350724,29.17501604006587,351.3896568401752,4.1512011544976355,13.539718712675183,8.200516725977407,71.0499901558042,24.387071266316077,38.11779676216907,47.1961710337599,46.24614102696998,44.397545967125595,5.438626235515254,153.66000000000003,25.235075959574722,184.2579338042938,59.82,72.13358320261206,637.25,495.52,388.93,2.09,1.8414269232220073,2.488633327143016,9.620433379058522,8.06292763906529,10.269815794451917,4.29194785526946,4.039585508777901,3.703235556441027,27.67467436331757,90.26479141783456,54.670111506516044,473.66660103869464,162.58047510877387,254.11864508112714,314.641140225066,308.30760684646657,295.98363978083734,109.09831008295107,561.5770166272944,530.7155006021941
0,A9,0.1875,9.074166666666667,-0.6383333333333333,-13.08875,0.46875000000000017,-0.5604166666666668,36.459583333333335,-28.740416666666665,-24.516666666666666,1.08,14.6,3.94,36.06,11.94,8.81,40.69,-14.69,-8.38,-0.59,5.5,-6.53,-263.31,-10.0,-17.94,28.5,-40.19,-39.19,1.25,60.49444444444445,-4.2555555555555555,-87.25833333333333,3.1250000000000013,-3.736111111111112,243.0638888888889,-191.60277777777776,-163.44444444444446,60.65682205431138,87.39416964160526,350.0082355512563,1.5912845328911036,16.465232824474516,13.152082735342015,280.1558227191917,24.61216776037145,25.56232827632755,50.06292207627672,58.20659692070844,60.145616376716845,4.5,217.77999999999997,44.62587181520325,579.5120097838844,40.41102857263581,44.770486930566214,875.03,689.77,588.4,0.3989623357161297,3.7264690926456527,2.690992682979381,133.49000000000004,3.4001323503652,6.878364631218672,5.848110806063795,4.024198960403504,1.4800000000000022,10.608563552607357,109.7682188298301,87.68055156894677,1867.7054847946113,164.08111840247633,170.41552184218367,333.75281384184484,388.0439794713896,400.970775844779,140.8881918726971,1882.627908385729,650.1896906541239
0,A6,-0.2686363636363636,8.342727272727272,1.3536363636363637,5.259545454545454,1.9777272727272726,1.8672727272727274,31.85090909090909,-22.742272727272727,-29.670454545454547,1.56,14.61,10.22,173.69,27.44,22.87,41.88,-10.69,-14.38,-1.17,1.96,-4.26,-139.31,-9.0,-21.31,15.06,-37.75,-38.56,-1.7909090909090908,55.61818181818182,9.024242424242425,35.06363636363636,13.184848484848484,12.44848484848485,212.33939393939394,-151.61515151515152,-197.8030303030303,56.37398740078378,39.47484768346409,327.41596049150235,2.571332313922936,19.670216922530717,15.623077002646754,211.43327400697024,37.439574724678046,40.7382132350433,60.811468692977954,49.40127029459484,53.37332603740372,5.91,183.54,42.58335652316116,442.75986855272396,58.13725490746672,84.55315709052095,700.72,500.33,652.75,0.7869104515325442,2.9253112699934434,4.9306880748801944,21.310000000000056,24.69073586269852,12.314771481526217,3.820000000000004,1.4500000000000002,1.9751442103756736,17.14221542615291,131.13477948353813,104.1538466843117,1409.5551600464682,249.59716483118697,271.588088233622,405.4097912865197,329.3418019639656,355.8221735826915,168.3395667068557,1457.0190745408192,632.0067567716048
0,A6,-0.25966666666666666,9.219333333333333,1.4943333333333333,-1.4230000000000007,0.07699999999999996,-0.0293333333333333,35.708333333333336,-21.07133333333333,-27.999666666666666,1.26,12.81,6.21,72.69,34.56,13.0,42.5,-11.06,-15.5,-2.77,3.73,-4.22,-111.19,-22.44,-16.0,18.06,-36.25,-33.19,-1.731111111111111,61.46222222222222,9.962222222222222,-9.486666666666672,0.5133333333333331,-0.19555555555555534,238.05555555555557,-140.47555555555556,-186.66444444444446,62.28842089648587,9.502557420550758,333.5377700639903,4.055722586756146,17.11166775479484,12.849377157435562,160.497395054322,48.446836614290746,28.5473881350159,62.99694624797033,49.921951071737645,49.46529013934009,7.789999999999999,276.58000000000004,52.65202778196769,458.4947816158207,108.7000985645576,65.60575551340824,1071.25,632.14,839.99,0.6178408275853766,0.39361223501054815,4.43,17.302945132132393,2.309999999999988,0.8800000000000034,1.371474298385496,1.2816535027432803,4.564063359160882,27.03815057837431,114.0777850319656,85.66251438290375,1069.98263369548,322.9789107619383,190.31592090010602,419.97964165313556,332.81300714491766,329.76860092893395,145.19941113826664,1133.754101626512,629.2016586807172
0,A5,-0.10303030303030303,9.145454545454546,-1.3687878787878789,-0.6115151515151515,0.15060606060606063,1.8506060606060606,33.68606060606061,-29.894242424242425,-22.550909090909094,1.4,11.18,2.78,74.94,39.0,34.69,41.06,-17.69,-0.88,-1.16,7.28,-6.72,-74.75,-27.44,-32.31,17.06,-40.75,-36.0,-0.6868686868686869,60.969696969696976,-9.125252525252526,-4.076767676767677,1.0040404040404043,12.337373737373738,224.5737373737374,-199.2949494949495,-150.33939393939397,61.652623389595554,13.032226308613682,335.7882871427578,2.7274342777034404,12.506999746990482,11.029044802582845,141.58317079770384,50.2717323210436,55.637276021616884,55.9466861685565,54.64433661494607,54.21242784022734,6.384677422559683,301.79999999999995,72.95329898635782,377.7374500857878,103.28757306198854,98.10459634184532,1111.6399999999999,986.51,744.1800000000001,0.3023249156931939,1.1163447482628484,1.07735438180613,20.180000000000007,4.970000000000002,9.824838612732192,2.3394621852672515,1.3858932137794908,2.7061940661618076,18.182895184689603,83.37999831326988,73.5269653505523,943.8878053180257,335.1448821402907,370.91517347744593,372.97790779037666,364.2955774329738,361.4161856015156,112.64571198975847,1068.0937912789832,634.3858815040414
0,A5,-0.06600000000000002,8.992285714285714,-1.8285714285714285,-5.412857142857143,-0.7120000000000001,-1.0302857142857142,32.027142857142856,-32.41542857142857,-22.970000000000002,1.53,10.65,1.53,45.38,22.94,7.5,40.56,-23.0,0.37,-2.14,5.07,-7.12,-240.5,-26.0,-18.44,15.56,-41.88,-36.25,-0.4400000000000001,59.94857142857143,-12.19047619047619,-36.08571428571429,-4.746666666666667,-6.868571428571428,213.5142857142857,-216.10285714285715,-153.13333333333335,61.17705882172742,37.03899152817253,340.2037813534199,3.4737791999181895,14.516938608559363,11.007761420207995,253.09352753761118,51.38622662018804,30.827236013167497,52.95578883085039,53.69267002607399,59.52360164457186,5.620026696790968,314.73,64.0,554.5324832667185,113.47024157108712,58.900491280429485,1120.95,1134.54,803.95,0.9044992925995493,0.5891231926237731,0.9492731601038235,128.5528913086639,6.860622672689676,8.978530796829345,0.7728740426338221,0.9053152612716556,2.551667126540672,23.1585279994546,96.77959072372909,73.38507613471997,1687.2901835840746,342.57484413458695,205.51490675444998,353.03859220566926,357.95113350715997,396.82401096381244,123.64455507240373,1733.9383104226363,640.4955559900704
0,A2,-1.123,10.253,-1.465,2.463,-4.718000000000001,-2.8480000000000016,24.354,-22.829,15.863999999999999,1.54,13.46,0.53,54.63,48.25,36.69,26.87,-17.87,34.19,-3.16,8.13,-3.66,-35.38,-40.69,-48.56,19.87,-32.06,1.88,-7.486666666666667,68.35333333333334,-9.766666666666667,16.42,-31.45333333333334,-18.98666666666668,162.36,-152.19333333333336,105.75999999999999,69.4522579426568,40.24204379612061,246.39147288636252,5.082300862260366,14.800837136751639,5.631064147804413,64.78501148347681,81.89811083023471,74.06024149555115,29.82958994964588,32.80063102683327,45.870445066612376,11.23,102.53,14.65,162.39,141.0512234042307,120.29219136667047,243.54000000000002,228.29000000000002,158.64,2.1139306350227898,1.7299999999999986,3.382985117522625,24.630000000000003,25.919999999999987,28.480000000000018,1.72694483940165,4.170000000000005,13.136779310527736,33.88200574840244,98.67224757834427,37.54042765202942,431.9000765565121,545.9874055348981,493.73494330367436,198.8639329976392,218.67087351222182,305.8029671107492,110.87599588727083,853.4718023293639,425.29903534292856
0,A2,0.2955555555555555,10.215555555555556,-1.3988888888888888,1.5144444444444445,6.992222222222222,-4.001111111111111,-21.63888888888889,-41.98555555555556,-14.422222222222224,4.89,15.56,0.17,25.62,44.13,29.56,-18.06,-21.87,-7.56,-4.0,6.81,-4.38,-27.69,-12.38,-40.63,-26.5,-53.56,-22.19,1.97037037037037,68.1037037037037,-9.325925925925926,10.096296296296297,46.614814814814814,-26.674074074074078,-144.25925925925927,-279.90370370370374,-96.14814814814817,68.76750476739836,54.647803129048796,329.24350201848966,5.924724733739124,16.79569027581257,5.563698040896593,46.652850769391925,51.15368267273272,57.93536028728993,28.69683292268416,69.93017094906766,24.922481579059813,9.418346179823702,91.94,12.59,61.578481335434546,79.67254920040976,78.60842267002668,194.75,377.87,129.8,0.3439476704383967,1.5255308760497925,2.271441894253065,13.63,32.65062982651501,36.01000000000001,3.0801379215437934,17.939222942663495,2.898597343578501,39.498164891594165,111.97126850541714,37.091320272643955,311.0190051292795,341.02455115155146,386.23573524859955,191.31221948456107,466.2011396604511,166.1498771937321,124.39226680177363,601.837693421366,530.6125230677321
0,A1,-0.17105263157894737,9.693157894736842,-1.7652631578947369,-1.7994736842105261,4.591052631578948,1.398421052631579,25.06157894736842,-26.57526315789474,27.025263157894738,1.27,11.76,-0.84,20.37,28.31,16.62,27.75,-15.0,35.88,-1.38,8.09,-3.23,-18.56,-22.0,-18.87,22.5,-43.25,11.56,-1.1403508771929824,64.62105263157895,-11.76842105263158,-11.996491228070175,30.60701754385965,9.32280701754386,167.07719298245615,-177.1684210526316,180.1684210526316,65.69380927765137,34.17045588518921,302.92589486172653,2.9064610744755783,12.720377033493637,4.239683912503878,46.22883859409077,48.798761445955115,36.51975897471138,29.554600900325568,55.76627355581688,51.80381597337821,6.4232927530135475,184.17,33.54,82.10198452834551,148.75818993902055,63.1368742949316,476.17,504.93,513.48,0.48512167216985574,0.5290267114084055,0.8103018437284929,24.183814079592132,18.60772562620227,20.366095936233577,0.6493675608552234,13.299092529134796,7.131443752839872,19.376407163170523,84.80251355662425,28.26455941669252,308.19225729393844,325.32507630636746,243.4650598314092,197.03067266883713,371.77515703877924,345.35877315585475,91.46472970000046,509.99422358335454,544.3441333928938
0,A1,-0.4028,9.6732,-1.5936000000000001,0.36199999999999993,-1.2167999999999999,-0.45239999999999997,-20.4436,-42.6988,-20.2536,1.5,10.69,-0.16,15.56,32.19,11.5,-16.87,-26.75,-13.25,-1.47,8.82,-3.4,-14.38,-29.0,-10.75,-24.56,-51.38,-23.25,-2.6853333333333333,64.488,-10.624,2.413333333333333,-8.112,-3.016,-136.29066666666668,-284.65866666666665,-135.024,65.41240352648043,8.984707996244385,343.2742094956871,3.292184763530344,11.445458140486407,4.735278396434977,28.483416079256482,68.60632336573002,25.272432022614463,27.726797086096827,70.95787674273494,31.65760630477054,10.07,241.82999999999998,39.84,44.465106347738455,141.77145581402723,48.81147876888721,511.09000000000003,1067.47,506.34000000000003,0.5915173067453092,0.4240757333994461,0.590076280118726,9.050000000000004,30.419999999999987,4.240334127519137,2.564975178389313,13.145826503232493,6.248653715607443,21.947898423535626,76.30305426990938,31.56852264289985,189.88944052837655,457.3754891048668,168.4828801507631,184.84531390731217,473.0525116182329,211.05070869847026,85.44260036996683,523.1030668634934,549.9898821468788
0,A2,0.8480000000000001,10.578666666666667,1.1273333333333333,-5.116666666666666,-39.42466666666667,-2.210666666666666,17.56066666666667,-22.433333333333334,11.319333333333333,2.35,15.09,3.9,46.69,49.0,85.31,20.56,1.37,24.56,-1.27,6.33,-4.05,-143.75,-131.63,-33.69,11.06,-43.88,-25.56,5.653333333333334,70.52444444444446,7.515555555555555,-34.11111111111111,-262.8311111111111,-14.737777777777774,117.07111111111114,-149.55555555555557,75.46222222222222,71.14872463568095,265.4448397745998,204.369900516287,4.28132094180596,18.621511508085913,7.6308673929469535,163.79174873958007,193.3073778840713,121.19451639016908,26.093820625961776,61.60860514180331,57.81507046709328,12.72,158.68,16.91,265.9782615177413,591.37,182.47727748955484,263.41,336.5,169.79,0.5637562541830182,2.466140426574701,1.1328797788195242,76.75,35.2411376318745,33.16000000000001,2.6965264979996117,15.852626179122453,17.889515178352372,28.542139612039737,124.1434100539061,50.87244928631303,1091.9449915972004,1288.7158525604752,807.9634426011272,173.9588041730785,410.72403427868875,385.4338031139552,137.16503231448579,1872.414841293122,589.5041259112409
0,A2,-0.13714285714285715,10.68142857142857,2.335714285714286,1.625714285714285,-8.105714285714285,-1.41,-16.054285714285715,1.1714285714285713,-28.545714285714286,1.76,13.54,3.98,50.94,42.56,29.69,-9.19,5.88,-16.37,-1.5,7.62,-0.25,-87.37,-58.38,-40.13,-23.5,-5.25,-34.19,-0.9142857142857144,71.2095238095238,15.571428571428573,10.838095238095233,-54.03809523809524,-9.4,-107.02857142857144,7.809523809523808,-190.3047619047619,72.89788465587726,55.910106826507445,218.47655747882987,2.833632385819986,15.09471119747734,5.6702532679617095,101.55137294154247,76.69116177085125,56.94661742007543,27.10589723933709,8.586835781553344,42.78310035290618,4.2195497927826,74.77,16.35,230.12521399035379,150.10002666992818,76.5023155762429,112.38,17.72297222252669,199.82,0.96,2.797490701950355,2.3335773930931007,11.379999999999992,35.17763154180463,9.870000000000008,1.441421948131355,3.9914566508246305,9.846942180811453,18.89088257213324,100.63140798318227,37.801688453078064,677.0091529436165,511.274411805675,379.6441161338362,180.7059815955806,57.24557187702229,285.22066901937455,109.14446099979322,929.4474553473767,342.46538119904795
0,A1,0.5921428571428571,9.489285714285714,2.1257142857142854,-1.6750000000000003,9.116428571428571,2.0314285714285716,9.174285714285714,-33.669285714285714,21.909285714285716,1.45,10.68,3.57,23.5,68.31,32.0,19.37,-22.25,26.37,-0.9,8.3,0.81,-45.13,-61.19,-29.0,-15.25,-44.5,17.0,3.9476190476190474,63.26190476190476,14.17142857142857,-11.16666666666667,60.77619047619048,13.542857142857144,61.161904761904765,-224.46190476190478,146.06190476190477,64.94983970730439,63.260167189428664,274.6962054818422,2.5063805369875594,11.593921987775003,4.480299457229026,54.450378474658955,124.05249539930803,53.62022426816123,36.338688086278545,54.37082803075411,28.334699666825326,8.29,132.85000000000002,29.76,79.54387712743022,225.49328743024483,122.08181170352641,128.44,471.37,306.73,0.11000000000000043,1.1139529392931726,0.5399999999999991,18.27840342528867,64.24941463984138,13.020484623783007,11.320000000000002,6.870000000000005,2.28636398442391,16.709203579917062,77.29281325183335,29.868663048193508,363.00252316439304,827.0166359953869,357.46816178774156,242.2579205751903,362.4721868716941,188.8979977788355,84.53113921475575,971.3448588059489,475.13938997079214
0,A1,0.413,9.65,2.098,2.7855,-5.5065,0.765,-20.392000000000003,-15.618500000000001,-29.425,1.84,11.5,3.04,43.38,19.62,17.5,-13.56,-5.06,-11.75,-0.76,8.59,0.34,-28.19,-58.5,-13.13,-27.87,-28.06,-37.25,2.7533333333333334,64.33333333333334,13.986666666666666,18.57,-36.71,5.1000000000000005,-135.9466666666667,-104.12333333333335,-196.16666666666669,65.89374375968228,41.454541367623406,260.39302185990573,3.072433511664891,12.561579477868875,5.140758832906592,57.58518582739559,74.28815493051323,34.69726746976907,33.87699151281883,39.728596713359906,52.545951241707925,8.26,193.0,41.96,97.42999999999999,159.15360107038967,83.3700207999679,407.84000000000003,312.37,588.5,0.6289425396947231,0.9289370178652915,1.1653472037197183,8.509630947367244,28.517512163581156,3.6093489717676164,7.586756653345101,8.26324716718923,9.000000000000014,20.48289007776594,83.7438631857925,34.27172555271061,383.901238849304,495.25436620342157,231.31511646512718,225.8466100854589,264.8573114223994,350.3063416113862,92.77464405525302,667.9548873530745,493.83258263722166
0,A15,-0.22428571428571425,10.848571428571429,0.11857142857142858,12.348571428571429,8.428571428571429,2.5342857142857143,-10.232857142857142,-27.052857142857142,-31.142857142857142,0.89,22.22,0.98,83.5,34.88,13.81,-7.19,-23.0,-29.06,-1.21,-0.39,-1.75,-81.69,-5.38,-4.88,-12.5,-30.25,-33.0,-1.495238095238095,72.32380952380953,0.7904761904761906,82.32380952380953,56.1904761904762,16.895238095238096,-68.21904761904761,-180.35238095238097,-207.61904761904762,72.34358308520143,101.09415561405976,283.34870514523794,1.5337375104074507,25.513398506302984,2.281891513339626,127.59386281146591,40.02428096826583,15.752118578511428,14.495718960975255,33.06081591302249,34.76689230591411,3.168593523442649,75.94,3.6926767925700803,196.17088097468852,59.0,25.231314179825603,71.63,189.37,218.0,0.2914751552854457,7.9865675114038925,0.8299999999999997,29.622310024381537,22.800910706099618,5.464828524406604,3.680708171358973,4.175549967121986,3.8155412964819155,10.224916736049671,170.08932337535325,15.21261008893084,850.6257520764394,266.8285397884389,105.01412385674286,96.6381264065017,220.40543942014992,231.77928203942741,171.0741077844993,897.6578445881471,334.12440914135686
0,A15,-0.9720000000000001,8.708,0.588,33.512,12.1,-1.2999999999999998,-8.916,-28.663999999999998,-33.202,0.71,20.99,1.16,72.75,35.88,9.81,-5.38,-27.25,-31.0,-3.79,-1.65,-0.44,2.5,-7.75,-18.75,-11.75,-30.69,-34.88,-6.48,58.053333333333335,3.92,223.41333333333336,80.66666666666667,-8.666666666666666,-59.440000000000005,-191.09333333333333,-221.34666666666666,58.545250115710594,237.68832477287003,298.40261809992364,4.155373810929342,22.080156954163318,1.7385322806636707,87.0019475518005,38.83887521028024,20.64913915708457,13.094548112341133,31.04830693798068,35.88715713777914,4.86,43.54,2.94,167.56,60.5,33.83595226058699,44.58,143.32,166.01,3.9274488507357628,8.813467505928775,1.3573543140016526,27.58871917381162,9.176571241710793,6.499999999999998,5.184623646307744,2.421176050175012,1.4000805528783793,27.702492072862285,147.2010463610888,11.590215204424473,580.01298367867,258.92583473520165,137.66092771389714,87.29698741560756,206.9887129198712,239.24771425186094,150.23284995410052,649.9293655069025,328.18372912563126
0,A14,-0.1211111111111111,9.963333333333331,1.541111111111111,6.256666666666667,6.646666666666667,-1.7277777777777779,20.93777777777778,-21.104444444444443,11.272222222222222,1.49,12.2,2.24,23.56,25.69,9.81,24.0,-18.69,20.19,-1.89,7.14,0.51,-18.25,-13.63,-25.12,16.0,-26.87,5.0,-0.8074074074074074,66.42222222222222,10.274074074074074,41.711111111111116,44.31111111111112,-11.518518518518519,139.5851851851852,-140.69629629629628,75.14814814814815,67.21696296128952,61.93518892266452,211.9592316573488,2.878444434680853,14.102736099777786,2.9963968475821567,39.334008709219034,46.58075824380586,26.201045084310046,27.2487001852714,27.264774837761085,24.8402839463945,5.136018817841325,89.67,13.870000000000001,56.53554193746254,59.82,39.2,188.44,189.94,101.44999999999999,1.0900000000000003,2.555567688266387,0.49000000000000066,6.201902933777664,37.293925904477604,15.55,2.5378924811134973,2.7354375681694423,5.890407456195196,19.189629564539022,94.01824066518525,19.975978983881046,262.2267247281269,310.5383882920391,174.67363389540031,181.65800123514268,181.7651655850739,165.60189297596335,98.01383166148224,442.3887703625426,305.7158677434635
0,A14,-0.35777777777777775,9.44111111111111,0.31444444444444447,-5.721111111111112,-1.8533333333333337,-0.16888888888888934,-19.26888888888889,-35.99444444444444,-28.874444444444446,1.05,11.5,1.85,106.44,30.87,29.81,-17.56,-26.75,-10.38,-2.71,6.73,-3.29,-54.56,-31.37,-32.38,-22.37,-43.38,-36.06,-2.3851851851851853,62.94074074074074,2.0962962962962965,-38.140740740740746,-12.355555555555558,-1.1259259259259289,-128.45925925925926,-239.96296296296293,-192.49629629629632,63.02079348534604,40.10789905404536,333.3749075308359,3.4484288113906976,12.87401363004272,4.425131315079147,122.19175726633067,51.062384439887865,42.774673319718126,22.650151909721608,50.27548851925792,48.31517889974421,4.484384015670379,84.97,7.00534757829518,189.725872501647,68.667155904406,78.05150671191429,173.42000000000002,323.95,259.87,1.8500409966822495,1.2368537988118022,1.571623364550171,42.62955941571602,16.680000000000007,1.5200000000000031,1.8255119453066733,6.7035587563621855,11.487515849305387,22.98952540927132,85.82675753361814,29.500875433860983,814.6117151088712,340.4158962659191,285.16448879812083,151.0010127314774,335.16992346171946,322.10119266496145,93.62185769702603,927.7898547056004,488.76309369208445
0,A13,0.61,5.287368421052632,-5.941578947368421,4.187368421052633,0.48052631578947375,-1.1031578947368421,4.732105263157894,-31.194210526315793,-0.5531578947368418,1.76,10.05,0.27,66.37,12.88,11.13,10.5,-23.06,33.06,-0.2,-1.09,-11.51,-125.12,-22.75,-42.0,0.06,-37.75,-32.06,4.066666666666666,35.24912280701755,-39.61052631578947,27.91578947368422,3.203508771929825,-7.354385964912281,31.54736842105263,-207.96140350877195,-3.6877192982456126,53.17924624753375,29.04549471625141,210.37295709585524,2.2646066793360484,14.005768558101067,15.143004132453052,141.34633101660003,28.9030521482035,45.70076731018152,12.647443360916178,44.606178638461955,46.610134063122764,11.59,100.46000000000001,112.88999999999999,599.7908818357054,65.92360012008604,87.01114309859415,89.91,592.69,335.11741007399326,0.5153575431187544,0.6858620417266347,1.0671113478088592,18.136479762218983,4.973635272044756,20.95999999999999,1.081661616940757,1.5986964726590798,1.870701957150598,15.097377862240323,93.37179038734045,100.95336088302035,942.3088734440003,192.68701432135668,304.6717820678768,84.31628907277452,297.37452425641305,310.7342270874851,138.33944893641166,1008.9099034342935,438.2882660571561
0,A13,0.29444444444444445,6.059444444444445,-5.4094444444444445,3.1766666666666663,0.11277777777777784,0.4066666666666667,4.6161111111111115,-30.50944444444444,-3.863888888888889,0.82,10.36,0.73,62.25,14.5,10.0,8.69,-21.37,31.87,-0.41,-0.72,-10.47,-97.5,-19.56,-6.44,1.0,-38.19,-32.88,1.962962962962963,40.3962962962963,-36.06296296296296,21.177777777777777,0.7518518518518523,2.7111111111111112,30.77407407407408,-203.39629629629627,-25.75925925925926,54.18718737598552,21.363840391391747,207.31771853788348,1.2819051290251338,14.138786217525952,13.17373286776119,126.50265125054057,26.954741723604705,15.295524084613659,10.735585138489142,45.152917278841606,45.561610291924,5.3,109.07000000000001,97.37,613.0934318407913,53.92168765904864,30.807976501441356,83.09,549.1700000000001,294.6332852260192,0.1507194470795225,0.34776541389215054,0.3300000000000024,10.303219998503737,2.0299999999999994,0.6800000000000015,0.19000000000000017,1.8377975949489185,1.0343046592872083,8.546034193500892,94.25857478350635,87.8248857850746,843.3510083369372,179.6982781573647,101.97016056409106,71.57056758992762,301.0194485256107,303.74406861282665,129.1159331136779,868.2916031386673,433.58449436445574
0,A12,0.5125,6.515625,-5.734375,0.44437500000000085,-0.02312499999999995,-0.784375,6.483750000000001,-32.01125,-8.27,1.24,9.96,0.24,91.06,9.63,9.06,13.5,-21.75,11.69,-0.46,2.89,-10.67,-101.0,-11.5,-8.38,-1.25,-38.25,-31.5,3.4166666666666665,43.4375,-38.22916666666667,2.9625000000000057,-0.15416666666666634,-5.229166666666667,43.22500000000001,-213.40833333333333,-55.13333333333333,57.965155062234494,6.012017767679078,224.61344974323234,2.1432115827409617,11.09504588300927,13.886037191269969,134.36817985224303,16.336024952338892,17.8186063107819,17.89277607318583,45.97526752562306,39.66779887430176,8.2,104.25,91.75,506.03963254612836,44.293226379891664,26.948326208391908,103.74,512.1800000000001,188.2357154420354,0.5429360068039638,0.7736653922785225,0.7346220249456288,7.009999999999998,0.3699999999999992,5.404397706136915,2.0,0.9166270419625482,0.5026518369871296,14.288077218273079,73.96697255339514,92.57358127513312,895.7878656816202,108.90683301559262,118.790708738546,119.28517382123886,306.50178350415376,264.45199249534505,119.3529644768563,910.1691222308767,422.0274307667078
0,A12,0.4975,6.949375,-5.325625,1.0481249999999995,-4.403125,-0.6143750000000001,5.83625,-32.26625,-10.330625,1.4,10.0,0.6,93.12,7.75,13.56,12.5,-21.19,12.56,-0.67,2.61,-10.64,-80.5,-35.06,-18.87,-1.25,-39.5,-31.87,3.316666666666667,46.329166666666666,-35.50416666666666,6.987499999999997,-29.354166666666668,-4.095833333333334,38.90833333333333,-215.10833333333335,-68.87083333333334,58.46313207911461,30.45107728207475,229.19128507918884,2.5894289762721217,12.653812181886167,13.4469390990471,127.84618710020719,42.080189417320376,27.169066680963596,17.069731424138645,47.686897744684515,39.56960873586547,7.959999999999999,111.19,85.21000000000001,549.6661974021388,70.44999999999999,60.92261897063082,93.38,516.26,193.70423065702175,0.2200000000000002,0.8617492334643919,0.34914593082508183,16.76999999999999,21.660704051346066,9.569999999999999,1.803724456229498,0.4066977051617284,1.499071861024116,17.262859841814144,84.35874787924112,89.646260660314,852.3079140013813,280.5345961154692,181.127111206424,113.79820949425763,317.9126516312301,263.7973915724365,124.30147514832014,915.3881528078892,428.49451612794326
0,A9,0.2516666666666667,8.780555555555557,-2.5616666666666665,-8.232222222222223,-0.0066666666666666975,-0.3616666666666666,27.297222222222224,-33.47277777777778,-22.014444444444443,2.34,13.75,0.6,60.81,6.19,10.88,31.87,-26.19,-4.38,-0.23,6.23,-7.16,-102.19,-5.75,-9.5,16.25,-41.38,-33.06,1.677777777777778,58.537037037037045,-17.07777777777778,-54.88148148148149,-0.044444444444444654,-2.4111111111111105,181.9814814814815,-223.15185185185186,-146.76296296296297,61.00041095906004,54.934437666194064,323.19247498166425,2.462316557404836,15.728298856791948,9.60819514581044,131.06779664253224,12.376290687229396,17.70265344108555,41.83926119026925,46.56169462090345,47.27024019719857,4.529999999999999,158.05,46.11,378.60871447659014,25.05591546920607,38.959658514450226,491.35,602.51,396.26,1.6406064174477453,5.898991309363342,0.36999999999999944,34.290898425950076,0.11999999999999922,2.517785338947262,2.09738812117363,2.7499999999999956,3.7599999999999927,16.41544371603224,104.85532571194632,64.05463430540293,873.785310950215,82.50860458152931,118.01768960723699,278.92840793512835,310.4112974726897,315.13493464799046,123.96411697967875,885.571349199253,522.9400131826759
0,A9,0.07388888888888889,8.032222222222222,-3.623333333333333,-5.211666666666666,1.066111111111111,0.5394444444444443,28.40888888888889,-34.49333333333333,-16.961111111111112,0.6,10.34,1.25,53.94,32.69,13.19,33.19,-27.75,-1.25,-1.65,3.62,-6.9,-59.25,-7.81,-25.25,18.06,-39.25,-29.25,0.49259259259259264,53.54814814814815,-24.155555555555555,-34.74444444444444,7.107407407407407,3.596296296296295,189.3925925925926,-229.95555555555555,-113.07407407407409,58.746384414326556,35.64582734148151,318.6453481341241,1.958323582262688,13.210383668220985,12.607000131377081,97.84937045075237,34.192973076422746,29.36240621304843,44.27172556529233,48.3306769215557,46.43263001225532,3.429712200647088,144.57999999999998,65.22,258.97039648706,75.32999999999998,53.988578783326865,511.36,620.88,305.3,0.8029943959953889,1.1290596423042343,1.9775742716772988,22.764486804899768,17.38467805330712,9.709999999999999,2.222588580911913,7.160723346098895e-15,5.439999999999994,13.055490548417922,88.06922445480657,84.04666754251387,652.3291363383491,227.95315384281832,195.7493747536562,295.1448371019489,322.20451281037134,309.55086674836883,122.43560125442593,718.2017545086279,535.4885265325216
0,A6,-0.004285714285714289,9.915714285714285,-2.4957142857142856,14.861428571428572,0.4642857142857141,1.1171428571428572,20.570714285714285,-30.005,-25.584285714285716,0.6,13.06,0.39,200.94,11.81,17.25,31.56,-23.5,-11.0,-0.71,6.07,-8.21,-52.94,-16.19,-7.63,7.69,-37.88,-31.75,-0.0285714285714286,66.1047619047619,-16.63809523809524,99.07619047619049,3.095238095238094,7.447619047619049,137.13809523809525,-200.03333333333333,-170.56190476190477,68.16646225207612,99.40391867335538,296.49882793357955,1.2046624081871875,15.031583047865265,10.61988979091679,215.47042592789717,24.643382950813088,18.88445138669087,45.37241472911757,44.7806930660926,44.33557966279601,2.7825803820370214,138.82,34.94,361.50112694657184,38.48464085762385,32.96599591127365,287.99,420.07,358.18,0.05999999999999994,1.7771859834085708,1.7200000000000015,87.93230996985152,6.500000000000002,5.74,0.6300000000000034,2.0499999999999945,6.630514142260773,8.031082721247918,100.21055365243511,70.79926527277861,1436.4695061859811,164.28921967208726,125.89634257793914,302.48276486078385,298.5379537739507,295.57053108530675,122.96011270395118,1451.3047505528125,517.6704277118909
0,A6,0.22285714285714286,9.172142857142857,-2.275714285714286,9.239999999999998,-1.1385714285714286,-3.3221428571428575,20.62,-30.821428571428573,-24.71857142857143,1.34,10.59,0.65,115.87,7.63,7.38,31.0,-23.06,-11.5,-0.67,3.58,-7.73,-78.12,-13.75,-27.12,9.06,-39.25,-32.25,1.4857142857142858,61.14761904761905,-15.171428571428573,61.599999999999994,-7.590476190476191,-22.147619047619052,137.46666666666667,-205.47619047619048,-164.7904761904762,63.019131277965734,65.899107416388,297.1084824439317,1.9573460921632535,14.935673310719249,10.3665170044061,153.05195008915987,17.0597594296413,30.00295543463137,42.744409511054066,48.36884351442454,47.19168861971137,3.3944259089892355,128.41,31.86,305.94844363176935,30.87044728733564,46.510000000000005,288.68,431.5,346.06,0.9811704014398727,4.487657622941713,1.3999999999999995,82.35730472034567,4.32,18.019567006994695,6.439690967239003,7.380000000000003,6.18,13.048973947755023,99.571155404795,69.11011336270734,1020.3463339277325,113.731729530942,200.0197028975425,284.96273007369376,322.45895676283027,314.6112574647425,121.9052848679715,1045.9681778185627,533.0701451508723
0,A5,0.2493103448275862,9.114827586206896,-2.6293103448275863,6.441724137931034,0.06206896551724146,-0.23275862068965517,23.141379310344828,-33.22896551724138,-21.7951724137931,0.82,9.87,1.03,82.12,9.81,8.88,32.5,-23.0,-7.0,-0.3,7.56,-6.79,-47.0,-8.75,-8.75,9.56,-41.88,-33.38,1.6620689655172414,60.765517241379314,-17.52873563218391,42.9448275862069,0.4137931034482764,-1.5517241379310345,154.27586206896552,-221.5264367816092,-145.30114942528735,63.26505458562014,42.974844839065284,306.5736907084306,1.4190068806991907,12.273824538653797,11.821358732637059,112.12130644438635,17.84595595001714,18.774282375799626,44.56983385819586,55.00708613435674,57.519783860628024,7.23,264.33,76.25,278.0931452354016,32.88191288325608,39.24792746176304,671.1,963.6399999999999,632.06,0.36760678732714763,0.26775288452021156,1.4572816198114054,19.201831403335106,1.799999999999999,4.041186674566719,0.6454371272323788,3.7942259707687995,8.893405367678822,9.460045871327939,81.82549692435865,78.8090582175804,747.475376295909,118.97303966678093,125.16188250533084,297.1322257213057,366.71390756237827,383.4652257375202,113.99900031117743,767.1632936790852,608.1218865586839
0,A5,0.2728125,8.685,-3.5046875,3.619375,0.25031250000000005,-0.19375,23.345312500000002,-34.2559375,-17.8490625,1.15,10.15,0.57,67.44,12.38,9.5,32.06,-24.37,0.0,-0.24,6.26,-7.44,-66.37,-9.69,-7.06,10.25,-43.0,-34.38,1.81875,57.900000000000006,-23.364583333333336,24.129166666666666,1.6687500000000004,-1.2916666666666667,155.63541666666669,-228.3729166666667,-118.99374999999999,62.462961872639205,24.22126779027175,300.8921476657537,1.517447091791964,12.442907757906987,13.277028972970076,120.58064346968126,20.153209556258783,15.34447368934986,42.847413128794344,55.972740574275726,57.70481623302849,8.73,277.92,112.15,337.4703317117499,43.4928465382527,38.33842581607404,747.05,1096.19,571.1700000000001,0.25,0.6109706425255077,0.18999999999999773,16.021997378604194,2.3689846287556495,5.124281095211023,1.0085618302654202,1.8099999999999454,3.250000000000057,10.11631394527976,82.95271838604658,88.51352648646717,803.8709564645418,134.35473037505855,102.2964912623324,285.64942085862896,373.15160382850485,384.6987748868566,121.72977313108218,821.4160214811715,607.3144642408115
0,A2,0.11571428571428591,9.141428571428571,2.162857142857143,15.838571428571429,-1.9200000000000006,5.018571428571429,19.66142857142857,-25.178571428571427,13.821428571428571,4.03,11.07,3.99,106.69,37.44,18.44,25.37,-19.0,21.37,-4.35,4.32,-0.2,-88.56,-35.06,-8.63,15.88,-35.06,6.0,0.7714285714285728,60.94285714285714,14.41904761904762,105.5904761904762,-12.800000000000004,33.45714285714286,131.07619047619048,-167.85714285714286,92.14285714285714,62.63015146888816,111.5014307993166,232.05019767361287,6.518993832835666,14.15942645378224,5.135391175608518,159.50917640170886,51.986431867052765,22.290199436402485,27.652416422621314,36.98746712335993,25.129315200273766,10.353150099042017,63.989999999999995,15.14,211.61247113334247,95.35011705308631,35.13,137.63,176.25,96.75,0.8100000000000009,3.1737648474804017,2.244881308147279,110.87,13.440000000000001,9.163913815396903,3.4928352758056085,8.267924856859501,3.3905998538522906,43.45995888557111,94.39617635854827,34.23594117072346,1063.3945093447257,346.57621244701846,148.60132957601658,184.34944281747545,246.58311415573286,167.5287680018251,109.4143765932746,1128.2753691765104,350.5051174548842
0,A2,-0.9400000000000001,9.275,0.9637499999999999,-0.06374999999999975,2.1887500000000006,-7.75125,-15.6175,-28.42125,-30.18,1.6,12.75,2.99,22.75,57.06,15.81,-11.5,-17.25,-17.19,-4.94,6.85,-2.18,-35.44,-47.25,-50.5,-20.87,-38.75,-39.5,-6.2666666666666675,61.833333333333336,6.425,-0.4249999999999984,14.591666666666672,-51.675,-104.11666666666667,-189.47500000000002,-201.20000000000002,62.48129998025187,53.697327550922964,295.33454911807695,5.633651095197704,13.524949481167063,5.485419813752572,54.97032289692137,82.88465930580145,55.26433606438532,24.136100356136247,46.943194191413376,49.056451235821015,8.95876107505943,74.19999999999999,10.490000000000002,106.75,187.45185968669395,72.98600668968393,124.94,227.37,241.44,1.54,2.398707985562226,2.5321334877924584,0.5099999999999909,17.509999999999998,31.749999999999996,4.977412374087594,8.698833255098064,11.486778037381622,37.5576739679847,90.16632987444709,36.56946542501715,366.4688193128091,552.5643953720097,368.42890709590216,160.907335707575,312.95462794275585,327.0430082388068,104.29703599999651,758.5292783704791,480.40493239889537
0,A1,-0.24375,9.43625,1.42875,-2.1093749999999996,-3.9612500000000006,-4.355625,19.43375,-33.222500000000004,16.456875,0.84,12.19,2.79,35.38,31.94,13.69,27.25,-21.5,24.37,-1.44,7.0,-0.04,-37.69,-44.44,-27.87,13.38,-45.56,3.88,-1.625,62.90833333333333,9.525,-14.062499999999998,-26.40833333333334,-29.0375,129.55833333333334,-221.48333333333338,109.7125,63.646089061133814,41.69328941142021,279.06461856854156,2.413041784185336,14.380524043671294,4.19991896837564,53.148315105248194,79.26121486049945,48.015247466076964,30.389288953101488,58.247188325189136,32.076123729835075,3.8999999999999995,150.98000000000002,22.86,96.11490131864916,171.06667118126833,78.72529805519663,310.94,531.56,263.31,0.26000000000000045,2.949779652787643,0.7199999999999989,12.851055070182875,12.09899214644807,13.550000000000004,0.19999999999998863,10.466063958477887,0.06999999999999318,16.08694522790224,95.87016029114196,27.99945978917094,354.3221007016546,528.4080990699964,320.1016497738464,202.59525968734326,388.31458883459425,213.84082486556719,101.1624791585308,712.1968382380946,487.4022543328541
0,A1,0.25529411764705884,9.248235294117647,1.8123529411764707,-0.2864705882352941,-0.03529411764705864,0.5923529411764706,-16.228235294117646,-26.36764705882353,-33.29470588235294,1.09,10.77,3.23,15.56,50.81,18.06,-11.5,-14.88,-19.0,-0.86,7.2,0.08,-14.25,-20.62,-22.25,-20.69,-39.0,-41.88,1.7019607843137257,61.654901960784315,12.082352941176472,-1.9098039215686273,-0.23529411764705763,3.949019607843138,-108.18823529411765,-175.7843137254902,-221.96470588235297,62.85067110938771,4.39288859450906,303.10583937865067,2.4525797764719024,12.293544019322999,5.0245469570535235,26.58998188660095,62.05371890373914,38.510767777429805,23.93597478403646,51.58161504211774,53.51130714422627,4.517611246868122,157.22,30.810000000000002,57.7306245238739,165.44222529107844,75.91837514398824,275.88,448.25,566.01,0.8861090863038281,0.6895054508157742,1.3625176073900214,4.869999999999999,0.600000000000005,10.069999999999995,1.9111942178330543,9.365173522829558,9.199391108213817,16.350531843146015,81.95696012882,33.49697971369016,177.266545910673,413.69145935826094,256.73845184953205,159.57316522690974,343.8774336141183,356.74204762817516,90.03516454724839,518.1492878535711,520.5575596949008
0,A9,-0.04999999999999999,9.315882352941177,-0.8147058823529412,-12.096470588235293,-1.6864705882352942,-1.183529411764706,24.46294117647059,-12.029411764705882,-21.808235294117647,0.78,14.31,3.58,83.37,15.25,18.62,30.25,0.25,-12.19,-2.17,5.61,-7.72,-143.63,-22.87,-28.12,14.0,-27.56,-28.25,-0.33333333333333326,62.10588235294118,-5.431372549019608,-80.64313725490196,-11.243137254901962,-7.890196078431373,163.08627450980393,-80.19607843137256,-145.38823529411766,62.34381718915458,81.80451647556885,232.73650957938617,3.0477244970064894,15.820965874780587,14.251265554030002,179.02706819131362,38.35789776837561,37.08232952886547,39.22625992301019,43.36266907547841,40.90539568862058,4.849107228265522,158.37,32.32766608864382,387.82171557055085,62.29218666624964,65.89893372718873,415.87,204.5,370.74,0.8500000000000001,4.057889864924023,3.527716583389517,46.77095811947949,15.568475127553652,9.125720998890596,5.588628522846674,13.653863558379607,8.202852413903301,20.318163313376598,105.47310583187058,95.00843702686669,1193.5137879420909,255.7193184558374,247.2155301924365,261.5083994867346,289.0844605031894,272.7026379241372,143.4015582918753,1245.3846996842879,475.73437655620046
0,A5,-0.073,9.291500000000001,0.4655,1.873,0.8035000000000002,-0.43499999999999994,21.6185,-6.299,-24.021,2.23,11.73,4.66,62.13,13.38,27.62,29.19,8.75,-16.37,-1.09,8.45,-5.63,-82.0,-17.44,-15.75,9.5,-22.19,-31.19,-0.48666666666666664,61.94333333333334,3.1033333333333335,12.486666666666666,5.356666666666668,-2.9,144.12333333333333,-41.99333333333334,-160.14000000000001,62.022931780646005,13.893189778528985,219.4989632220516,2.691138075625737,12.322185604154063,10.526131941771911,143.17236778051674,32.31872677100175,33.66476041350124,39.63857489719169,33.35549404973688,36.39466279904097,3.84402667865162,185.82999999999998,30.246708303121228,379.4990521543355,67.20646395652538,72.04631971581361,432.37,128.40853116849138,480.42,0.9800000000000001,1.5900228981467788,0.817579859033655,21.42,14.115186975671982,7.104467792788249,0.11000000000000065,5.620000000000005,1.089349749471196,17.94092050417158,82.14790402769376,70.17421294514608,954.4824518701116,215.45817847334501,224.4317360900083,264.2571659812779,222.36996033157922,242.63108532693983,109.51974674528286,1003.9066598859711,422.0783015001524
0,A5,0.12954545454545455,9.284090909090908,0.7368181818181818,9.194545454545455,0.9663636363636364,-0.6731818181818181,21.86318181818182,-10.646363636363636,-24.11,0.55,11.48,4.78,94.0,10.69,12.06,30.37,4.0,-12.56,-0.54,8.25,-6.1,-73.0,-13.06,-11.25,6.88,-28.37,-32.38,0.8636363636363636,61.89393939393939,4.912121212121212,61.296969696969704,6.442424242424243,-4.487878787878787,145.75454545454545,-70.97575757575758,-160.73333333333335,62.0945612455053,61.79777002582933,228.29180915783712,1.1323240528346936,12.18598409797416,13.237171977837955,167.6421642850996,21.06680511187597,23.275011140162793,46.23365729588424,38.059969688327534,44.86446347394523,3.3430103827777953,204.25,37.764937120683946,421.820059770532,44.27032635744147,42.89827121627685,480.99,234.22000000000003,530.4200000000001,0.30818839511585744,0.5691643793809062,1.7458658486676861,5.91999999999998,8.659607515517244,3.8099999999999974,3.988555784932953,1.9810903702135283,4.171715091977892,7.548827018897958,81.23989398649441,88.24781318558637,1117.6144285673306,140.44536741250647,155.1667409344186,308.2243819725616,253.7331312555169,299.09642315963487,120.18561351649474,1137.0416129859645,498.84009650987787
0,A6,-0.14416666666666667,9.725833333333332,-0.8024999999999999,11.102500000000001,-0.9841666666666665,-2.855,21.951666666666668,-16.368333333333336,-22.285833333333333,0.4,12.93,2.54,113.62,19.81,9.63,31.56,-3.25,-11.69,-1.07,4.34,-6.88,-96.69,-25.06,-21.0,12.56,-25.5,-27.56,-0.9611111111111111,64.83888888888889,-5.35,74.01666666666668,-6.56111111111111,-19.033333333333335,146.34444444444446,-109.12222222222225,-148.57222222222222,65.06633343683644,76.70582051731517,235.36792691129037,1.4381191210951771,15.59782699463918,9.262585376900946,159.53934912391784,34.63547154558066,24.768601465539003,38.049506826950946,33.056005917111584,36.61339113997723,2.59324121515913,116.71000000000001,15.778273036045483,391.04648726206455,70.90108455991728,42.38294940185263,263.42,196.42000000000002,267.43,0.8974863185344827,0.48999999999999844,2.309891714255938,43.48999999999997,10.847262327426215,3.133156676274723,1.060000000000009,2.295734118580003,3.3069008876534234,9.58746080730118,103.98551329759454,61.75056917933964,1063.595660826119,230.90314363720438,165.12400977026002,253.66337884633964,220.3733727807439,244.08927426651488,121.31792602277767,1100.8260217092895,415.3180793204845
0,A6,0.03749999999999998,9.603333333333333,-1.6841666666666668,7.271666666666667,4.026666666666666,3.374166666666666,20.859166666666667,-17.8025,-19.863333333333333,1.51,14.09,1.49,138.19,12.44,31.75,29.0,-7.19,-8.19,-1.27,4.59,-6.65,-105.37,-1.0,-21.44,11.5,-26.06,-26.37,0.24999999999999986,64.02222222222223,-11.22777777777778,48.47777777777778,26.844444444444445,22.49444444444444,139.06111111111113,-118.68333333333332,-132.42222222222222,64.99977255420795,59.80567838146029,225.74182415502784,2.2240875675189,15.809202763766045,9.383179240588225,177.637940227239,16.573840965750367,46.0166444254819,37.187472298600305,33.498651957618165,34.49465226600064,4.315078214818359,115.24000000000001,20.655026022738387,398.21048554753054,48.32000000000001,88.61147047645694,250.31,213.63,238.36,0.4500000000000002,1.4632213344035891,4.4005567829537195,24.380000000000024,3.147351513514525,2.3699999999999974,0.4300000000000067,1.8700000000000043,3.6200000000000037,14.827250450126,105.39468509177364,62.55452827058817,1184.25293484826,110.49227310500245,306.77762950321267,247.9164819906687,223.3243463841211,229.9643484400043,123.45426687101872,1228.3224617649219,405.24060418961005
0,A9,0.1045,9.004,-0.3625,-6.6819999999999995,-0.7310000000000001,1.6315000000000002,24.1555,-12.697,-20.819,0.76,9.88,6.57,56.38,9.44,34.31,30.06,1.69,-10.69,-1.21,6.51,-5.85,-77.0,-25.37,-16.37,13.25,-28.19,-27.5,0.6966666666666667,60.026666666666664,-2.4166666666666665,-44.54666666666667,-4.873333333333334,10.876666666666669,161.03666666666666,-84.64666666666666,-138.79333333333332,60.07933366252769,46.11352043237066,228.82625628774917,2.1112440503591596,12.17629754356744,14.134739492853999,158.39292301387357,29.279327942794765,44.95282767198218,42.80864530061545,45.324309044917996,38.20945468402262,4.381678300228537,180.07999999999998,40.62881096717398,319.16273402191086,78.47601381812231,72.75009107225625,483.11,253.94,416.38,0.08999999999999986,1.3599999999999992,3.5699999999999963,25.974237862901504,7.222004605410172,15.715152582282014,3.1300000000000012,13.067147790999064,3.68271808394359,14.07496033572773,81.17531695711627,94.23159661902666,1055.9528200924906,195.19551961863178,299.6855178132145,285.3909686707697,302.16206029945334,254.72969789348411,125.16840812645799,1114.8762526520356,487.48039414129926
0,A13,0.2813636363636363,5.008636363636364,-6.037272727272727,-0.09409090909090943,-0.12181818181818205,-0.7231818181818181,18.726363636363637,-23.188636363636363,4.820909090909091,2.22,10.17,1.44,89.56,27.25,8.25,22.06,-19.0,25.0,-2.08,-0.07,-10.21,-101.87,-30.06,-8.44,13.06,-29.56,-24.06,1.8757575757575755,33.39090909090909,-40.24848484848485,-0.6272727272727295,-0.8121212121212137,-4.821212121212121,124.84242424242424,-154.5909090909091,32.13939393939394,52.329836699526226,4.9292086844928855,201.28815341959574,3.510261744477987,13.521920420856988,15.353881536614267,159.73667662862272,46.32145750503617,17.27191594543289,25.59072540751023,34.06167374861237,42.158156282797336,7.512628656637679,110.19,132.82,688.9378337576997,95.83222144749715,34.519254974617006,411.98,510.15000000000003,277.2274355246689,0.6500000000000004,1.1151048889184532,0.2033163101542694,2.0700000000000003,2.679999999999998,1.0299468172056263,0.7621421646321688,1.4295410732260088,1.12193162305477,23.40174496318658,90.14613613904659,102.35921024409512,1064.9111775241515,308.80971670024115,115.14610630288594,170.6048360500682,227.07782499074915,281.05437521864894,138.3884946443035,1114.7456584087124,399.57716465752276
0,A13,-0.056999999999999995,5.326,-6.331,4.4635,0.9029999999999999,0.024500000000000032,18.6105,-27.205000000000002,7.8685,0.51,11.03,1.0,73.19,35.0,5.06,20.87,-23.25,27.25,-0.71,0.1,-10.01,-88.81,-10.0,-6.06,14.56,-33.25,-18.37,-0.38,35.50666666666667,-42.20666666666667,29.756666666666668,6.02,0.16333333333333355,124.07,-181.36666666666667,52.45666666666667,55.15678098737171,30.359945469135628,225.91798192166013,1.1816042711922337,12.487106179996408,15.35362320713729,142.57212183882592,38.26145682986912,10.190333344174366,23.57507393040922,38.023986910078754,41.93134812542115,4.140110672833689,106.52,126.62,567.0207024308274,68.7129129057996,28.950692957949343,372.21000000000004,544.1,233.108876972624,0.10353879097470704,0.17829819614074074,0.9513646059805588,8.963111670655886,8.979773926229518,0.490000000000002,0.3540593360460304,1.998946017636038,1.42926519162398,7.877361807948224,83.24737453330938,102.35748804758194,950.4808122588395,255.07637886579414,67.93555562782912,157.1671595360615,253.4932460671917,279.542320836141,132.17122816692478,986.4547497204173,408.78386829322363
0,A12,0.38235294117647056,8.75294117647059,-3.4111764705882353,7.046470588235294,-0.54,1.7682352941176471,24.079411764705885,-25.18,-4.984117647058824,0.95,10.85,1.29,48.13,12.38,12.81,30.25,-22.0,7.69,0.04,7.63,-7.48,-74.62,-17.0,-3.25,18.5,-32.06,-21.0,2.549019607843137,58.352941176470594,-22.741176470588236,46.976470588235294,-3.6000000000000005,11.788235294117648,160.5294117647059,-167.86666666666667,-33.22745098039216,62.67953694924877,48.566565456873896,234.6337003031633,1.311631549310192,11.8224030601641,11.162373784777383,100.14663466205084,25.664561109527828,18.928186203216946,34.20287712654616,34.4963210559562,33.721729986723396,6.5,148.79999999999998,57.99000000000001,216.69697505081436,58.99637129208624,30.060000000000002,409.35,428.06,101.82222191262122,0.5216317933396162,0.9163712213239406,2.012452393030891,26.505959936338645,7.331926545919476,4.578123189665144,1.3949497340110608,4.1459035045478645,11.090882531600917,8.744210328734614,78.81602040109401,74.41582523184923,667.644231080339,171.09707406351885,126.1879080214463,228.0191808436411,229.9754737063747,224.81153324482264,108.74806357391356,700.6756854485413,394.23557781986716
0,A12,0.3409090909090909,8.173636363636364,-3.1409090909090907,-0.7504545454545449,0.8422727272727273,0.21590909090909102,24.211363636363636,-24.101363636363637,-6.97,1.12,9.8,1.37,106.06,10.88,11.88,31.06,-21.69,11.06,-0.29,5.88,-8.73,-60.19,-9.19,-8.06,18.69,-29.25,-23.25,2.2727272727272725,54.49090909090909,-20.939393939393938,-5.003030303030299,5.615151515151515,1.4393939393939401,161.4090909090909,-160.6757575757576,-46.46666666666667,58.419882585974484,7.6571596342189325,232.4408415312462,1.7055476321739915,12.149768776125866,11.798866579151108,118.88737516755714,24.05138798423658,16.889140728206254,34.720535625738165,30.6109099678398,34.8450061700155,7.5,179.82,69.1,473.46016233829624,44.34775147631121,46.47392627731816,532.6500000000001,530.23,206.47976072938982,0.3398489248283417,0.37999999999999934,1.1417494840859224,16.50999999999999,5.823934754877489,2.3549717839926685,0.7874103909101925,1.1909769740130067,2.3800000000000017,11.37031754782661,80.99845850750577,78.65911052767406,792.5825011170476,160.3425865615772,112.59427152137503,231.4702375049211,204.072733118932,232.30004113343668,113.47814798777512,816.439977047695,386.24792603172875
0,A15,-1.0237500000000002,8.98625,0.77125,-89.0525,6.90625,19.47625,-11.28375,-26.9375,-30.1625,1.72,16.92,4.12,52.63,69.31,101.06,-2.38,-23.5,-22.25,-3.62,3.11,-2.73,-535.5,-26.62,-13.06,-16.56,-36.69,-34.0,-6.825000000000001,59.90833333333334,5.141666666666667,-593.6833333333333,46.04166666666667,129.84166666666667,-75.225,-179.58333333333334,-201.08333333333334,60.51467395507382,609.4576226039017,279.8990553405916,5.793505354536434,18.661521169024738,6.092939441401572,556.1538174827072,72.8180231489166,106.5728424113721,23.01865074918247,37.55290546224162,38.441977031228134,8.19,71.88999999999999,8.456884769227969,712.4199999999998,121.01350544464036,155.81,90.27,215.5,241.3,4.355066079558276,3.5550302574944452,2.5900000000000007,395.31029887924745,34.85879637673893,62.132604441479614,0.9899999999999949,6.802896441957644,5.07764265526211,38.62336903024289,124.41014112683159,40.619596276010476,3707.6921165513813,485.45348765944397,710.4856160758139,153.45767166121647,250.3527030816108,256.27984687485423,136.4536531283445,3806.2364259815245,389.75003893027343
0,A15,0.1442857142857143,7.507142857142857,1.5014285714285713,-81.53857142857143,13.927142857142858,10.072857142857142,-10.820000000000002,-25.784285714285716,-28.062857142857144,1.26,12.89,6.93,20.37,94.62,56.19,-5.56,-22.25,-24.25,-1.3,-1.77,-3.3,-306.88,-12.69,-20.25,-15.06,-30.0,-29.69,0.961904761904762,50.04761904761905,10.00952380952381,-543.5904761904762,92.84761904761906,67.15238095238095,-72.13333333333335,-171.8952380952381,-187.0857142857143,51.04782071744102,555.536433040511,264.10652234920724,2.152140563365944,17.310636815718844,7.907450360789999,350.4128622978142,96.17375292599294,72.72517431806664,17.406716997171944,32.013036131191214,32.46394248354506,2.9850984283344446,52.550000000000004,10.707786112359589,570.77,108.2828307070852,99.06127021167788,75.74,180.49,196.44,1.01,8.282098626416747,4.6977375081019,105.8448333274547,85.0624104265746,30.842966918567356,2.7857785960675403,2.981071954499373,1.4599305933071847,14.34760375577296,115.40424543812563,52.716335738599994,2336.0857486520945,641.158352839953,484.8344954537776,116.0447799811463,213.4202408746081,216.42628322363376,127.6832238486349,2470.5151581105056,325.35354039236296
0,A14,-0.4091666666666667,11.365,-2.3758333333333335,33.52166666666667,-2.7091666666666665,-7.141666666666666,-16.808333333333334,-35.645,-25.3125,5.14,28.03,2.17,175.94,35.0,110.81,-9.0,-23.75,-0.25,-6.42,4.51,-23.94,-60.75,-47.69,-104.94,-19.69,-45.25,-37.69,-2.727777777777778,75.76666666666667,-15.83888888888889,223.4777777777778,-18.06111111111111,-47.61111111111111,-112.05555555555556,-237.63333333333335,-168.75,77.45255935485466,229.20588735086255,312.25408106536463,7.900160622097334,33.49514968418782,24.81368517947217,242.55740963838036,76.69799579638779,154.47148762566906,26.39028216283623,55.93929237475501,60.37746117053317,11.570158979268005,136.38,33.88754411802897,402.26,123.37648114612443,257.71724059519187,201.7,427.74,303.75,2.7551225018136662,2.660000000000002,19.05389461501244,157.0150273063059,32.51,76.154017444843,2.6999999999999997,10.5,16.87,52.667737480648896,223.3009978945855,165.42456786314781,1617.0493975892025,511.3199719759186,1029.8099175044604,175.9352144189082,372.9286158317001,402.51640780355444,282.847156402106,1984.1384362426934,576.2364191283403
0,A14,0.3233333333333333,12.592222222222222,-2.2777777777777777,22.624444444444446,-12.797777777777778,-7.923333333333334,18.417777777777776,-20.13222222222222,29.547777777777778,6.49,32.82,2.25,390.31,21.56,24.44,24.19,-9.06,51.69,-3.22,0.7,-13.86,-128.0,-99.5,-58.56,9.69,-27.25,11.75,2.1555555555555554,83.94814814814815,-15.185185185185185,150.82962962962964,-85.31851851851853,-52.82222222222223,122.78518518518517,-134.21481481481482,196.9851851851852,85.33772815329036,181.1601886091419,268.12866575429223,7.32049566121183,38.22236556420403,14.628196832752028,396.37895212021675,108.63224780800356,67.07095419165906,29.100721300626315,33.931193789521444,63.76637783238319,9.135842768199222,113.33000000000001,28.847159490312382,616.9322628151067,128.0640118030804,80.37214620015712,165.76,181.19,265.93,2.9099999999999993,12.159858788751139,1.1753151112637175,203.62,90.87442457705008,43.560622913222666,3.6206041267755484,5.440431257301785,18.452392798767317,48.80330440807887,254.8157704280269,97.52131221834686,2642.526347468112,724.2149853866904,447.1396946110604,194.0048086708421,226.20795859680965,425.1091855492213,277.1700664154858,2776.214463729104,519.1586712733096
0,A5,-0.59825,8.83075,-0.9452499999999999,2.5165,1.4620000000000002,-1.39425,37.035000000000004,-18.12675,-20.905250000000002,1.31,10.06,4.34,54.88,40.13,29.69,47.75,-3.25,-6.25,-2.28,7.47,-6.22,-54.75,-29.87,-29.12,18.0,-32.38,-32.0,-3.9883333333333333,58.87166666666667,-6.301666666666667,16.776666666666667,9.746666666666668,-9.295,246.90000000000003,-120.84500000000001,-139.36833333333337,59.34215147487211,21.51397407629645,308.19905314765515,3.956993231620897,11.804788474130515,13.927418081094208,114.52072504673484,58.253656536746306,53.383490656536324,64.5629208541101,44.69798475386513,50.30413632266031,23.93,353.23,81.46781856698787,383.6811596784915,99.07712320347714,84.91781132189494,1481.3999999999999,725.0699999999999,836.21,0.2778177587777121,0.4665385554115554,0.7699999999999965,19.549910037425636,17.041738584275052,16.39655384879117,3.0091194725367765,1.2900000000000356,3.9039189906535015,26.379954877472645,78.69858982753676,92.8494538739614,763.4715003115656,388.3577102449754,355.8899377102422,430.41947236073406,297.98656502576756,335.36090881773544,124.54072083006928,927.5602895004256,621.7104263933542
0,A5,-0.8747368421052633,8.989210526315789,-1.6578947368421053,1.67,-0.10736842105263163,-0.22236842105263155,36.17657894736842,-18.899736842105266,-19.23157894736842,0.23,10.07,2.95,56.38,9.0,16.5,48.25,-4.25,-6.56,-2.01,7.43,-6.06,-65.06,-10.13,-8.75,20.0,-31.87,-28.0,-5.831578947368422,59.9280701754386,-11.05263157894737,11.133333333333333,-0.7157894736842109,-1.4824561403508771,241.17719298245615,-125.99824561403511,-128.21052631578948,61.21716730453663,11.254383230093609,300.7988287392146,2.869755722101912,11.91178616865862,12.461762645857917,108.47767728473563,23.657500383437696,21.821535013782324,58.66098205210007,44.57534748148397,40.33148697617439,33.24,341.59000000000003,63.0,461.56473219164116,46.27424046632625,67.73580818310785,1374.71,718.19,730.8,0.336105707449501,0.2058932448131028,0.34575206932124136,7.568180658580839,4.08,8.450000000000003,0.11657254562621402,0.7237813397563015,0.6838629851898242,19.13170481401275,79.41190779105747,83.07841763905279,723.1845152315709,157.71666922291797,145.47690009188216,391.07321368066715,297.16898320989316,268.8765798411626,116.50878381270148,754.3433696148174,559.9484603314912
0,A15,-0.8711111111111111,9.145555555555555,-2.7944444444444443,12.946666666666667,19.41111111111111,-2.5766666666666667,-29.075555555555557,-43.653333333333336,9.854444444444445,-0.31,12.51,0.43,55.88,55.75,22.0,-27.25,-42.56,18.25,-1.53,5.42,-4.75,-26.5,-36.44,-35.06,-31.37,-45.25,-1.69,-5.807407407407407,60.97037037037037,-18.62962962962963,86.31111111111112,129.40740740740742,-17.177777777777777,-193.83703703703705,-291.02222222222224,65.6962962962963,64.01699105731947,156.49588187081477,355.7846737867005,1.7773434654642668,13.950392752420385,6.827198169501728,74.867554073917,78.32465268263022,39.40414912470921,32.77296394493299,45.519774763257956,28.525099864863932,7.84,82.31,25.150000000000002,117.89889058002201,174.7,54.20631303406459,261.68,392.88,88.69,0.559732078766261,4.20955423518955,1.3550276749941303,20.78931715211553,13.759387668896558,21.765339368455844,1.0912378292563027,0.7739303872242225,11.357498703111828,11.848956436428447,93.00261834946923,45.514654463344854,499.1170271594467,522.1643512175348,262.6943274980614,218.48642629955327,303.4651650883864,190.16733243242624,104.21836958716581,768.6232667455309,419.5128594259497
0,A15,-0.87375,9.52875,-0.7887500000000001,3.741250000000001,10.91375,-4.952500000000001,-28.29625,-44.84375,6.54875,0.67,17.61,-0.04,66.44,63.94,5.88,-26.25,-44.06,12.88,-2.47,0.27,-2.58,-64.06,-20.0,-34.63,-29.87,-46.56,-8.56,-5.825,63.525000000000006,-5.258333333333334,24.941666666666674,72.75833333333334,-33.01666666666667,-188.64166666666668,-298.95833333333337,43.65833333333334,64.00786138783614,83.70162533268596,356.1850832666448,3.353867771745786,20.486082620089068,2.770085689895964,100.17698157280725,65.55446733545602,35.12236099430057,31.371661211504907,46.828470129470396,22.83640243213207,6.99,76.23,6.3100000000000005,148.1257401669271,95.21641717687135,43.88126251602158,226.37,358.75,52.39,1.5699999999999998,7.17258219209314,1.4700285859697344,29.93,16.810000000000002,27.620000000000005,0.6299999999999955,1.4101418368377052,3.9899999999999984,22.35911847830524,136.57388413392712,18.467237932639758,667.8465438187151,437.02978223637353,234.14907329533716,209.1444080766994,312.189800863136,152.24268288088047,139.61874832347902,831.7690936655679,405.4401184928371
0,A15,-1.49,9.2775,-1.8425,-38.52375,-5.5075,-2.3187499999999996,-9.33875,-41.78375,-22.42875,0.75,20.25,0.62,35.25,9.25,34.88,-5.38,-38.88,-16.25,-4.73,1.21,-4.39,-268.13,-39.31,-25.0,-11.75,-44.5,-26.75,-9.933333333333334,61.85,-12.283333333333333,-256.825,-36.71666666666667,-15.458333333333332,-62.25833333333333,-278.55833333333334,-149.525,63.83552215568452,259.896429959235,322.224410564887,5.086614495431499,22.157895582366873,4.999912408938616,281.5896607471607,40.62275136225006,44.09664435460213,13.631282612618353,45.96967769425793,30.314047937138596,11.92,74.22,14.74,324.0606760185653,58.40685009370075,62.07000000000001,74.71,334.27,179.43,0.7015109902094442,11.155999745876933,0.5800000000000001,192.07,18.59905911598756,18.55,1.355296610373615,0.009999999999990905,3.0500000000000114,33.91076330287667,147.71930388244581,33.332749392924114,1877.2644049810713,270.8183424150004,293.9776290306809,90.87521741745569,306.46451796171954,202.09365291425732,155.1837774684892,1919.3454788463291,378.18071137804907
0,A13,-0.7729999999999999,6.883,-5.648000000000001,-0.5715000000000003,1.1524999999999999,-0.27249999999999996,-8.9085,-41.304,-6.875,0.27,9.78,-0.86,42.0,24.06,9.25,-5.19,-31.0,20.25,-1.37,2.68,-10.0,-78.31,-17.62,-4.69,-13.0,-47.5,-32.06,-5.153333333333333,45.88666666666667,-37.653333333333336,-3.8100000000000023,7.683333333333333,-1.8166666666666664,-59.39,-275.36,-45.833333333333336,59.5811759982407,8.76641254384534,285.3962090575915,2.082048605916438,12.310993261817462,12.181318392964185,106.69096354176368,29.98845267359311,11.799169481128018,14.354252406015044,54.725557846663186,44.651035511179586,15.46,137.66,112.96000000000001,416.9859992251475,46.32039181679767,40.22277181621732,178.17,826.0799999999999,248.8652619974034,0.596297610281075,0.5799999999999981,0.24322948733247796,11.429999999999986,3.607122483126205,1.4877163708180372,0.5368448590580909,2.5313965894751536,1.9054589185073019,13.88032403944292,82.07328841211641,81.2087892864279,711.2730902784245,199.92301782395407,78.6611298741868,95.6950160401003,364.8370523110879,297.6735700745306,116.29082304114038,743.0115714867035,480.4926275759858
0,A15,-0.5877777777777777,8.676666666666668,-1.9722222222222223,10.242222222222223,0.25666666666666654,-3.9577777777777783,-11.432222222222222,-40.62,-25.95777777777778,1.09,10.8,-1.03,132.5,15.25,10.69,-5.75,-38.69,-22.75,-1.98,2.92,-3.11,-30.31,-8.44,-38.0,-15.19,-43.38,-29.5,-3.9185185185185185,57.844444444444456,-13.148148148148149,68.28148148148149,1.7111111111111104,-26.38518518518519,-76.21481481481482,-270.8,-173.05185185185186,59.449208070352334,73.22203638111264,330.28515168958444,2.872152457814274,15.255337036917634,3.6659463249662787,138.97143988554063,20.048920361061505,38.94357540958645,19.320349653145556,44.96826871945669,30.3941387534371,5.29,78.09,17.75,170.95417640494406,31.513715684009917,50.47857426128952,102.89,365.58,233.62,1.4335712234393543,4.681696020421864,0.5139790656246324,92.18,2.3100000000000023,22.805979829509315,2.2858040160958684,2.5435615264831752,1.4747034023297596,19.14768305209516,101.70224691278423,24.43964216644186,926.4762659036043,133.65946907374337,259.62383606390966,128.80233102097037,299.7884581297113,202.62759168958067,106.33568028933725,971.4049934030095,384.08475759673763
0,A14,-0.4661538461538462,9.821538461538463,-2.677692307692308,7.57076923076923,2.327692307692307,4.736153846153846,24.484615384615385,-17.755384615384614,26.01076923076923,8.51,13.54,1.11,62.06,38.5,120.69,31.37,-14.38,53.69,-4.92,7.28,-16.42,-59.38,-49.44,-37.75,18.5,-24.75,4.38,-3.107692307692308,65.47692307692309,-17.851282051282055,50.47179487179487,15.517948717948714,31.574358974358976,163.23076923076923,-118.36923076923077,173.40512820512822,67.9378648323232,61.52356422245958,265.9415298602401,10.006820601589608,14.213354320284642,16.66877434147294,116.58661807276388,83.56033571389483,127.91396129753844,33.52395779854143,28.20254185145205,70.72152914663764,18.840460531857335,127.68,34.81,144.06679899066188,130.08095052419011,183.1433386997166,318.3,230.82,338.14,2.81445661818164,1.108420399647121,6.616821985262653,87.63297558192704,19.646078073508686,61.56999999999999,1.0415735942978763,5.676611236503676,19.30270043870823,66.71213734393072,94.75569546856428,111.12516227648626,777.2441204850926,557.0689047592989,852.7597419835896,223.49305199027623,188.016945676347,471.47686097758424,160.5551393873836,1281.262410681859,554.6079214964992
0,A14,-0.7894736842105263,10.99736842105263,-2.9578947368421056,14.804736842105264,4.2036842105263155,-6.265789473684211,-15.635263157894736,-44.06421052631579,-14.58842105263158,3.96,28.56,1.56,159.75,45.19,31.12,-9.5,-22.37,-0.56,-5.94,5.53,-16.34,-54.38,-42.81,-97.81,-20.25,-52.75,-23.69,-5.2631578947368425,73.3157894736842,-19.719298245614038,98.6982456140351,28.02456140350877,-41.771929824561404,-104.23508771929824,-293.76140350877193,-97.2561403508772,76.1035908513783,110.77731649762741,326.5263734206517,8.607017071053514,29.546602895469636,19.424941443278485,194.47464391972196,73.00179275643065,111.21103701293316,26.581380308626166,77.70999705247637,35.5555854212447,15.000000000000002,208.95,56.2,281.29,174.96204422984317,148.38675677988596,297.07,837.22,277.18,2.864209903292449,12.09041328728079,2.288888685869376,109.68661041480954,18.406240653351023,70.03523242344299,0.7022148826719594,14.291704974245436,2.772922215553998,57.38011380702343,196.97735263646425,129.49960962185656,1296.4976261314798,486.6786183762043,741.4069134195545,177.20920205750778,518.0666470165091,237.03723614163135,242.6163716742755,1570.8107408008912,596.6429446180106
0,A9,-0.5918181818181818,9.271818181818182,-0.7254545454545455,-6.244545454545456,-0.03500000000000004,-0.25272727272727274,45.44227272727273,-13.889090909090909,-22.110454545454544,0.25,12.55,1.62,76.44,20.62,16.25,49.38,-9.19,-8.88,-1.62,5.87,-6.14,-111.12,-20.69,-10.94,34.5,-28.0,-27.19,-3.9454545454545453,61.81212121212121,-4.836363636363637,-41.63030303030304,-0.2333333333333336,-1.684848484848485,302.9484848484849,-92.5939393939394,-147.4030303030303,62.126446490487076,41.665036772529064,349.3981617395794,2.3819489068944404,15.171660235849151,9.132673111014519,154.66991451703504,32.670528227187404,25.788047817882894,58.572026401964656,32.86768141290405,39.82402649260518,13.02,203.98000000000002,33.94441795865501,365.47780452761475,60.51016660432743,43.42653086445937,999.73,305.56,486.43,0.7920966760219239,2.2465731655047043,1.8074578787297744,15.260000000000039,0.7700000000000014,5.559999999999999,0.5910347554335115,2.3047866317425605,1.1899999999999893,15.87965937929627,101.14440157232768,60.88448740676346,1031.1327634469003,217.8035215145827,171.92031878588597,390.4801760130977,219.117876086027,265.4935099507012,119.11874058355005,1067.8154081344,520.5518372896347
0,A12,-0.2942105263157895,7.853684210526316,-5.336315789473685,4.756842105263158,0.26947368421052637,-0.9510526315789474,21.563157894736843,-35.37947368421053,-11.342105263157896,0.26,9.84,-1.26,42.75,13.5,8.44,27.5,-29.25,0.19,-1.41,6.31,-8.23,-22.31,-12.94,-7.56,13.5,-39.38,-28.69,-1.96140350877193,52.357894736842105,-35.57543859649123,31.712280701754388,1.796491228070176,-6.340350877192983,143.7543859649123,-235.86315789473687,-75.6140350877193,63.330940908304676,32.38975420229858,286.38127564223436,1.833286969153603,10.599903033008978,10.379732445507331,75.14620307374683,25.315071173514532,16.566764216046895,32.35331308747836,43.79663073897333,32.63673468267553,5.59,149.22,101.38999999999999,198.31979055317638,52.90175687501674,41.46362662538173,409.7,672.21,215.5,0.33732279417416083,0.27413734901028375,0.431795505746206,35.28127963705831,5.12,6.699251875132084,2.418634936355973,1.9766245625826109,2.7591661201172215,12.221913127690687,70.66602022005986,69.19821630338221,500.97468715831224,168.76714115676356,110.44509477364598,215.68875391652242,291.9775382598222,217.57823121783687,99.65668424050843,540.0519457118504,423.21721150516856
0,A12,-0.52,7.376315789473685,-6.035263157894737,-1.5531578947368423,-0.6278947368421053,-0.8621052631578947,27.296315789473685,-32.41789473684211,-8.095263157894736,0.35,9.6,-1.86,51.5,13.38,5.94,42.38,-29.0,3.0,-1.83,5.63,-9.02,-50.06,-34.06,-7.88,12.5,-35.75,-27.0,-3.466666666666667,49.17543859649123,-40.23508771929825,-10.354385964912282,-4.185964912280702,-5.747368421052632,181.97543859649124,-216.11929824561406,-53.96842105263158,63.63256888351029,12.560567452329956,287.6372747011002,2.510735691547037,10.737826066289728,11.176177762350216,87.58670356866737,40.09969640783972,13.450208957360744,45.50099499288325,38.649248682419305,30.12199950128707,9.879999999999999,140.15,114.66999999999999,253.08620191418512,103.23791698374608,32.84151982488727,518.63,615.9399999999999,153.81,0.8560825737025394,0.5733851481469294,0.7786306387212263,29.51,11.930000000000005,5.7832847644218734,2.1211419103214153,1.3406037464079372,1.0094955316507626,16.738237943646915,71.5855071085982,74.50785174900145,583.9113571244492,267.33130938559816,89.6680597157383,303.3399666192217,257.6616578827954,200.8133300085805,104.67126353352424,648.4279936044709,445.79216996330956
0,A3,-0.22999999999999998,9.601176470588236,-2.894117647058824,7.44764705882353,8.838235294117647,-10.925882352941176,9.064117647058824,-4.882352941176471,-12.392941176470588,1.4,15.3,-1.37,45.31,90.81,20.75,21.5,10.38,-2.69,-3.0,6.51,-5.43,-20.69,-35.69,-51.0,4.5,-21.25,-22.25,-1.5333333333333332,64.00784313725491,-19.294117647058826,49.65098039215687,58.92156862745098,-72.83921568627451,60.42745098039216,-32.54901960784314,-82.61960784313726,66.87015829182019,106.03076178738593,107.41003262997941,4.421958489348761,19.177615951865544,7.450689896296548,68.13120421071592,110.76162923006098,77.33909764686432,24.72034338923814,38.10618961467388,33.00599219318536,7.046883418348248,163.21999999999997,49.2,126.61000000000001,282.62204625384254,185.74,154.09,124.2079534875033,210.68,1.7526630369229075,5.784937819386735,1.14264340177649,21.299518097753566,8.845624292044247,17.921303126436385,5.9885507143620815,7.112882513317638,5.559226908575296,29.479723262325074,127.85077301243696,49.67126597531032,454.2080280714395,738.4108615337399,515.5939843124288,164.8022892615876,254.0412640978259,220.03994795456904,140.2929396195367,1008.6588570248667,374.31849687950336
0,A16,-0.5095238095238096,8.836666666666666,-0.9671428571428571,-1.0142857142857142,-9.892857142857142,3.880952380952381,-6.661904761904762,-9.268571428571429,24.22809523809524,2.19,15.54,0.92,46.63,71.25,31.69,11.5,-6.0,26.56,-8.15,5.71,-6.26,-48.31,-59.75,-29.44,-10.88,-12.38,19.69,-3.3968253968253976,58.91111111111111,-6.447619047619048,-6.761904761904762,-65.95238095238095,25.873015873015873,-44.41269841269842,-61.79047619047619,161.52063492063493,59.360165317369336,71.16777964544336,178.5482182305613,9.215860939594087,18.435277001254857,8.010159013114434,96.1333246066389,137.14247474606876,69.83982667817925,27.104259956022652,14.8397226190398,31.67736792856969,14.367045383113345,185.57,20.31,177.1023716339063,272.46649315139285,147.42320620858126,139.90000000000003,194.64,508.79,4.18145994449743,2.378301492906619,3.293824083879943,4.537444214533091,65.67632709189691,7.10914661466417,7.950567700294334,1.4870168940946682,2.140621927930173,61.43907293062725,122.90184667503239,53.40106008742956,640.888830710926,914.2831649737917,465.598844521195,180.69506637348437,98.931484126932,211.18245285713127,147.41538867149987,1209.7249617594832,295.0189383040177
0,A3,-0.3233333333333333,9.619444444444445,-1.7122222222222223,-1.0405555555555555,1.745555555555556,1.4427777777777773,8.788333333333334,-18.031111111111112,-23.50611111111111,1.07,14.09,0.02,15.94,29.5,22.62,15.25,-14.38,-16.75,-1.61,7.12,-3.39,-17.31,-23.56,-25.37,4.06,-21.37,-27.0,-2.1555555555555554,64.12962962962963,-11.414814814814816,-6.937037037037037,11.63703703703704,9.618518518518515,58.588888888888896,-120.20740740740742,-156.7074074074074,65.1732599571563,16.61502369380432,206.00895668197575,3.4629843076979614,14.89073074847631,5.243569266012136,28.198108130212077,51.89696376031702,53.53088370794265,17.724951524317518,23.082347938551123,33.07177759165572,6.0169510551441245,173.15,30.82,64.25,135.45210334284218,121.62356967298733,158.19,324.56,423.11,0.4799999999999991,0.6735725647619621,1.0819167494552193,6.9930322464579,24.400424176640865,25.97,1.1966646712221396,1.0595753866526028,1.6100000000000003,23.086562051319742,99.2715383231754,34.95712844008091,187.9873875347472,345.9797584021135,356.87255805295104,118.16634349545012,153.88231959034084,220.47851727770478,107.74891413455374,531.412526938706,293.69002298097166
0,A16,-0.9313333333333333,9.641333333333334,-0.6313333333333334,5.807999999999999,-3.108,-0.6166666666666668,-9.821333333333333,-15.900666666666666,25.007333333333335,1.3,20.55,1.08,78.19,34.44,22.0,-1.56,-14.25,28.75,-7.83,4.39,-5.01,-24.31,-66.5,-23.44,-13.75,-18.56,21.37,-6.20888888888889,64.27555555555556,-4.20888888888889,38.71999999999999,-20.720000000000002,-4.1111111111111125,-65.47555555555556,-106.00444444444445,166.71555555555557,64.71176159624221,44.10734671874857,208.1299283656281,8.505733082245538,22.077004826135447,5.732302119239303,114.5435101285049,90.54177546968066,40.544941769263254,19.215453133685354,20.000431981270463,32.12258778959437,13.969999999999999,144.62,9.469999999999999,165.76763199329025,125.78891390338786,59.87792014967426,147.32,238.51,375.11,5.252818579187033,4.345228643187484,2.0268003766075786,64.7023245332036,46.620000000000005,9.250000000000007,1.4421165001483036,1.5105959089048229,1.6087106080875995,56.704887214970256,147.18003217423632,38.21534746159535,763.6234008566994,603.6118364645378,270.29961179508837,128.1030208912357,133.33621320846976,214.15058526396248,162.28930613716417,1010.2127635268814,282.930031780178
0,A4,-0.26928571428571424,10.882857142857144,-1.9657142857142857,4.000000000000001,14.352857142857143,-7.303571428571429,10.689285714285715,-22.71,-18.97214285714286,3.26,23.43,0.25,167.06,138.13,26.44,20.56,-20.06,-1.75,-4.04,-2.68,-3.99,-161.81,-55.19,-63.75,3.19,-25.19,-24.69,-1.795238095238095,72.55238095238097,-13.104761904761906,26.666666666666675,95.6857142857143,-48.6904761904762,71.26190476190477,-151.4,-126.4809523809524,73.74825859814256,110.62381977284002,209.75616888541688,6.584042137890224,33.60564868488309,5.802059714635548,248.23592832714604,178.79750570457298,87.32815076051429,22.70690790166913,27.93582672475372,39.61022091704381,10.970050988283104,152.36,27.519999999999996,584.74,392.36971325403596,144.2683578972071,149.64999999999998,317.94,265.61,2.6699999999999986,9.326917818510525,1.519999999999999,56.0,29.560000000000002,25.00291977874472,3.5910101077252587,3.4853789049232033,11.20677087564622,43.893614252601495,224.03765789922062,38.68039809757032,1654.9061888476404,1191.98337136382,582.187671736762,151.37938601112754,186.23884483169147,264.06813944695875,231.55063102075732,2120.962360961729,356.83694890569734
0,A17,-1.0499999999999998,7.668888888888889,-1.8144444444444443,-8.686666666666667,-6.13,-0.603333333333334,-5.727777777777778,-15.285555555555554,29.38888888888889,3.6,19.75,0.97,97.94,90.12,44.44,4.38,-12.5,32.5,-4.29,-1.06,-7.55,-113.62,-69.62,-23.25,-9.25,-17.06,26.25,-6.999999999999999,51.12592592592593,-12.096296296296297,-57.91111111111112,-40.86666666666667,-4.0222222222222275,-38.18518518518519,-101.9037037037037,195.92592592592592,53.00170455627872,70.99267220053659,224.11925764219936,8.20230508262104,23.74898316214272,8.637935401405946,170.60058386819935,124.3478514269382,51.80621077680634,16.552472443930792,18.670825271952154,33.43011227136409,14.73469010211926,69.02000000000001,16.33,298.3734083325791,243.69757343888347,128.2507309920688,51.55,137.57,264.5,4.59835840273461,6.3366059940740325,5.294753377201679,59.93655258247553,55.042055488555974,5.430000000000007,7.334071051005515,1.3439116944972915,1.6197914765667594,54.68203388414027,158.32655441428483,57.586236009372975,1137.3372257879957,828.985676179588,345.37473851204226,110.34981629287195,124.47216847968103,222.86741514242726,177.1259361023477,1449.1504154077054,278.1012179300402
0,A4,0.3244444444444444,10.966666666666667,-3.7399999999999998,-4.846666666666668,18.756666666666664,6.125555555555554,8.236666666666666,-26.45111111111111,-18.0,7.24,22.75,2.65,124.31,75.44,72.44,13.25,-23.69,-11.38,-8.4,2.66,-7.13,-130.69,-28.25,-40.56,3.5,-28.87,-22.06,2.162962962962963,73.11111111111111,-24.933333333333334,-32.31111111111112,125.04444444444444,40.83703703703703,54.91111111111111,-176.34074074074076,-120.0,77.2760253105159,135.4539943361533,220.25277970652252,11.456071521856737,27.925786514962557,11.478597596802787,171.00439113466646,106.1686955220319,112.28485610632872,14.637934557545757,30.447764680748506,26.729305805906037,21.46947106507562,98.7,33.66,310.8420208079982,168.81,168.08363236096633,74.13000000000001,238.06,162.0,2.92,11.031258180565215,5.4999550484247735,43.620000000000005,36.35590514976677,41.92628090913906,1.7578395831246978,1.496429082850241,4.157453059671628,76.37381014571159,186.1719100997504,76.52398397868525,1140.0292742311099,707.7913034802127,748.5657073755248,97.58623038363838,202.9850978716567,178.19537203937358,215.28785174814863,1536.5499971184634,287.1926408087529
0,A17,2.37,9.5,-4.156,-28.324,-1.1,-14.662,-6.776000000000001,-1.9140000000000001,30.076,6.1,23.95,0.42,61.38,73.5,2.19,-3.75,0.25,31.75,-1.18,1.54,-9.09,-141.56,-138.63,-43.5,-10.19,-5.19,27.69,15.8,63.333333333333336,-27.706666666666667,-188.82666666666668,-7.333333333333334,-97.74666666666667,-45.17333333333334,-12.760000000000002,200.5066666666667,70.91128604734855,212.7526701751747,205.92807244817845,7.151051791472336,25.36868927118025,11.21462444248363,160.33278063138107,147.0134682593021,49.02516000940314,11.018244136253495,5.459448582332336,32.58581429154581,11.85,47.5,20.78,170.49828105569006,183.80318471258624,73.31,33.879999999999995,9.57,150.38,5.894692828419207,18.491858232203608,7.933690601943184,141.62,5.5,24.8133042573232,5.204533477237641,2.757160414586155,1.5011290112780848,47.673678609815575,169.1245951412017,74.76416294989087,1068.8852042092071,980.0897883953473,326.8344000626876,73.45496090835664,36.396323882215576,217.23876194363874,190.95965117130166,1486.5773771178317,232.1917383650682
0,A7,-0.144,9.2085,-0.7304999999999999,1.1709999999999994,-0.05699999999999994,0.19999999999999996,-5.8534999999999995,-14.355,22.0185,1.46,10.3,2.81,73.25,22.69,13.63,-3.88,7.38,33.25,-1.46,8.05,-5.15,-61.56,-16.94,-17.5,-8.88,-26.37,13.25,-0.96,61.39000000000001,-4.87,7.806666666666663,-0.3799999999999996,1.333333333333333,-39.02333333333333,-95.7,146.79,61.59034502257639,7.928822246854962,179.52329833323708,2.551101332813567,11.698745502598737,8.350567351076068,99.48647467669352,33.40423338578186,29.141602674313454,11.470099311925086,44.38145894659321,37.46691642862596,4.5142531054989785,184.17000000000002,40.67782764019433,297.4023267683173,61.628985306913165,67.68828702220199,117.07,287.1,440.37,0.22401079040105018,0.6300000000000023,1.1699999999999995,23.419999999999998,1.1400000000000023,4.0,1.8712596026999757,3.259999999999989,1.2942177932701806,17.007342218757113,77.99163668399159,55.67044900717379,663.2431645112902,222.69488923854573,194.2773511620897,76.46732874616724,295.8763929772881,249.77944285750638,97.31980258228022,726.1048120887757,394.68957721357594
0,A7,-0.43607142857142855,8.964285714285714,-1.6735714285714285,0.6346428571428567,1.4178571428571427,-0.19214285714285723,-8.711785714285714,-17.940357142857142,27.79,0.57,10.7,2.87,112.5,79.75,22.31,-5.75,0.37,38.69,-1.96,7.0,-7.01,-127.37,-52.56,-18.31,-14.88,-29.06,15.5,-2.907142857142857,59.76190476190476,-11.157142857142857,4.230952380952378,9.452380952380953,-1.2809523809523815,-58.07857142857143,-119.60238095238095,185.26666666666668,60.863934945889795,10.435003724057237,228.03856640147498,3.197485543401576,12.674818302184814,13.163637922768531,181.0507979888766,95.05446326252802,41.600851403788354,18.028277472502232,49.7666035144863,48.37139527415274,12.21,251.0,46.86,443.9946483863772,173.36237084464838,79.23840987175016,243.93,502.33,778.1199999999999,1.1741600443319358,0.4651881339845232,1.6196550816933533,17.769999999999982,16.932412539913937,5.379999999999999,0.36068146971634146,2.33355727786355,0.8093080876613978,21.31657028934384,84.4987886812321,87.7575861517902,1207.005319925844,633.6964217501868,277.33900935858907,120.18851648334822,331.777356763242,322.4759684943516,123.67633316315994,1391.1685460001904,478.02954324146293
0,A8,0.25166666666666665,8.704166666666667,1.155,-6.259999999999999,-5.447500000000001,-1.1358333333333335,-8.57,-26.055833333333336,22.68166666666667,5.58,12.04,5.69,44.81,16.44,39.63,-2.38,-15.06,37.19,-1.18,2.32,-5.33,-161.0,-51.44,-45.63,-13.19,-32.25,13.38,1.6777777777777778,58.027777777777786,7.7,-41.73333333333333,-36.31666666666667,-7.572222222222224,-57.13333333333334,-173.70555555555558,151.21111111111114,58.560463899279064,55.83824798712442,237.28176906812453,5.622927826443745,15.824295477520224,9.900925988356564,170.29812358988116,58.23767499135118,57.265256122695824,17.41516443132225,39.90488967435903,38.42555035839745,7.792945527847605,104.45,20.494876381974404,283.9569161205291,81.7962083473311,104.13,102.84,312.67,272.18,3.0200000000000005,3.8809663745000424,3.2776275089746902,58.480000000000025,13.42665641345095,13.630000000000003,5.229416793486626,0.4299999999999997,1.1970797801316342,37.48618550962497,105.49530318346817,66.00617325571042,1135.320823932541,388.25116660900784,381.7683741513055,116.10109620881501,266.03259782906025,256.17033572264967,129.96648801016647,1259.1423402976532,387.1382809188754
0,A8,-0.534,9.99,0.624,6.8050000000000015,-5.714,-1.4750000000000003,-8.35,-24.843,24.663,0.78,14.21,3.02,140.5,25.56,10.44,-5.06,-18.06,36.69,-1.47,6.09,-3.35,-44.69,-46.25,-29.44,-10.5,-30.56,15.06,-3.5600000000000005,66.60000000000001,4.16,45.36666666666668,-38.09333333333334,-9.833333333333336,-55.666666666666664,-165.62,164.42000000000002,66.82469004791568,60.04940410473142,239.92227611828332,2.3524866107927,15.78479070338067,6.59987830776331,150.15755873167916,72.89468522474094,32.09535938742936,12.290812036971552,33.86393624698709,40.83171326685458,5.34,99.89999999999999,13.547825988379994,274.5067508978837,102.61886459559788,48.53723104723457,83.5,248.43,246.63,1.490442347043701,3.08,2.5,68.05000000000001,43.49072726238471,11.629999999999999,1.74,0.660024363911241,2.1300000000000052,15.683244071951332,105.2319380225378,43.99918871842207,1001.0503915445278,485.96456816493964,213.96906258286242,81.93874691314369,225.75957497991394,272.21142177903056,115.13319908905056,1133.1576270165494,363.01570501531864
0,A17,-0.06272727272727273,9.365454545454547,0.25000000000000006,7.21,-5.364545454545454,-6.284545454545454,-12.30818181818182,-27.663636363636364,20.527272727272727,1.79,15.88,1.41,66.87,23.56,15.31,-8.19,-23.56,24.06,-2.47,5.11,-2.78,-77.37,-66.56,-59.5,-16.0,-31.87,16.69,-0.4181818181818182,62.43636363636365,1.6666666666666672,48.06666666666667,-35.763636363636365,-41.8969696969697,-82.05454545454548,-184.42424242424244,136.84848484848484,62.46000446640289,73.10812677249811,243.87037013305613,4.320239882742706,18.283274178902033,3.8639950972144033,107.95094810678106,93.64676693829387,70.7155175593135,18.067792065757867,33.93903343236633,26.69268398451989,7.250952913237206,103.02000000000001,6.057611180550096,265.9126709228601,163.95442213957003,96.13641995137894,135.39,304.3,225.8,0.6900000000000004,7.168335425011149,2.040066232061586,25.769699852537737,59.00999999999999,50.48780210105878,2.4247035180056957,2.22041997546002,2.2796679630168883,28.80159921828471,121.88849452601356,25.75996731476269,719.6729873785404,624.3117795886258,471.43678372875667,120.45194710505245,226.2602228824422,177.95122656346592,127.86677884191178,1062.9896744314988,312.04006001738423
0,A17,0.11142857142857143,9.768571428571429,1.0799999999999998,0.838571428571428,5.696428571428571,2.7842857142857143,-10.447142857142856,-28.18642857142857,20.31642857142857,4.11,21.8,2.61,76.25,56.31,51.56,-5.69,-25.87,24.0,-3.87,5.33,-2.29,-65.94,-37.75,-52.19,-14.56,-31.06,14.69,0.7428571428571429,65.12380952380953,7.199999999999999,5.590476190476187,37.976190476190474,18.561904761904763,-69.64761904761905,-187.90952380952382,135.44285714285715,65.52482280501123,42.6378795850615,241.87920028052162,6.849819097512719,22.32603389611847,5.30021089852035,138.52336484629294,92.31352421265845,82.26715678400197,18.12367963460343,32.38232438130549,28.392076251903852,11.16647770834209,136.76,15.119999999999997,302.9562452980855,129.50895267834522,142.26411861595562,146.26,394.61,284.43,1.5599999999999996,3.400000000000002,1.1599999999999997,11.740000000000002,8.110000000000014,23.801890165225544,2.379999999999997,1.1300000000000021,1.3610481888348798,45.665460650084796,148.84022597412314,35.334739323469,923.4890989752863,615.4234947510564,548.4477118933465,120.82453089735621,215.88216254203658,189.2805083460257,159.64739574283695,1237.89057937236,311.49765040867067
0,A4,-0.18384615384615383,9.443076923076923,-1.4984615384615385,-1.038461538461538,-1.6684615384615389,-2.8130769230769235,9.173076923076923,-30.38769230769231,-19.76923076923077,3.3,14.01,2.57,95.81,85.25,63.13,12.0,-25.87,-16.0,-5.25,2.6,-5.21,-117.44,-65.31,-55.88,4.88,-35.0,-27.25,-1.2256410256410255,62.95384615384616,-9.98974358974359,-6.923076923076921,-11.123076923076926,-18.75384615384616,61.15384615384616,-202.5846153846154,-131.7948717948718,63.75330515725979,22.877031710465783,249.29943345576928,8.876268636281585,19.382877120431925,7.804187652648541,148.84539465654476,131.21697806914742,115.90403301429919,14.774396056979766,37.457427992681296,30.960474586181967,14.702972251233478,122.75999999999999,19.48,346.2755153503853,233.18146926688286,262.44259284992364,119.25,395.04,257.0,2.390000000000001,3.4897168058276296,3.6358228712070333,13.500000000000005,21.689999999999994,36.56999999999999,0.9172238019364085,0.5306990194681575,1.7896528341566373,59.175124241877235,129.2191808028795,52.02791768432361,992.3026310436318,874.7798537943162,772.6935534286613,98.49597371319844,249.7161866178753,206.4031639078798,151.347931056145,1531.978991922125,338.61762619194485
0,A4,0.47642857142857137,9.748571428571427,-1.5335714285714286,13.513571428571428,10.16642857142857,0.9450000000000003,10.809285714285716,-29.454285714285714,-20.367857142857144,5.88,13.71,2.67,75.19,104.69,60.31,16.37,-24.87,-12.06,-2.63,4.67,-5.16,-65.94,-57.44,-72.69,5.88,-33.56,-26.37,3.176190476190476,64.99047619047619,-10.223809523809525,90.0904761904762,67.77619047619046,6.3000000000000025,72.06190476190477,-196.36190476190475,-135.7857142857143,65.8663530384447,112.91410848822927,249.37657460900135,7.165535427852234,16.733167541795506,8.305720926092773,136.50552034381354,148.13345771937966,119.3611131773829,18.579839856252057,36.50325647067388,33.13288503743168,16.621319498730045,136.48,21.47,239.9721455474866,390.40708674381875,287.943009040012,151.32999999999998,412.36,285.15000000000003,2.433900247713788,1.8860210302982428,1.987629948311712,18.929999999999993,14.684616817224454,13.230000000000018,1.726179155084449,0.7259211087235896,4.690000000000002,47.77023618568156,111.55445027863671,55.37147284061849,910.0368022920903,987.5563847958645,795.740754515886,123.86559904168038,243.3550431378259,220.88590024954453,133.38812108558986,1560.9733960175627,351.2192258057909
0,A3,0.07352941176470586,9.686470588235293,-1.1150000000000002,1.5711764705882354,1.4067647058823531,-0.5423529411764706,9.702941176470588,-27.701764705882354,-20.831764705882353,2.71,13.15,0.56,60.31,43.88,33.81,14.19,-22.69,-15.56,-1.6,6.89,-3.57,-45.81,-33.69,-26.12,2.56,-34.5,-26.69,0.4901960784313724,64.5764705882353,-7.433333333333335,10.47450980392157,9.378431372549022,-3.615686274509804,64.68627450980392,-184.67843137254903,-138.87843137254902,65.00473282979458,14.517007883091454,239.95344511942898,5.172642354319996,16.002052399116977,5.584913869588605,121.80913729893288,93.76551181681904,57.55215051202997,19.14057909545718,37.841735797807374,35.12361794849443,23.42389305172156,329.34000000000003,37.910000000000004,217.6535785427288,301.00289790823115,238.73351670932772,329.9,941.8600000000001,708.28,0.5600000000000023,0.7637922886236684,0.6762420094280638,51.999556463159216,15.840666342339697,2.679999999999996,1.2628216195168713,0.5627281800570282,1.4590851356196883,34.48428236213331,106.68034932744652,37.2327591305907,812.0609153262193,625.103412112127,383.6810034135331,127.60386063638121,252.27823865204917,234.15745298996285,118.13611223979711,1094.2615402247748,367.09231500732335
0,A16,0.36551724137931035,9.788275862068966,0.7589655172413794,-0.05655172413793105,0.16275862068965516,-0.44620689655172424,-11.283448275862069,-27.64,21.99655172413793,2.34,13.54,2.22,44.0,55.44,25.12,-6.06,-25.19,26.87,-2.74,7.73,-0.83,-36.19,-24.69,-20.31,-14.25,-30.19,16.75,2.4367816091954024,65.2551724137931,5.05977011494253,-0.3770114942528737,1.0850574712643677,-2.9747126436781617,-75.22298850574713,-184.26666666666668,146.64367816091954,65.49638696127323,3.1887932976604376,247.21866998417326,5.3139665003449785,16.84047486628243,3.8443281720276596,83.22871072542603,79.58224493309045,45.32823587883822,19.892026528322766,32.399370308357,32.89687951645265,12.663654838280834,283.85999999999996,22.009999999999998,166.1000080449588,163.2324602601286,143.8535498739035,327.21999999999997,801.56,637.9,0.7747686679581409,2.5348755237432963,0.920915116294797,1.6399999999999864,4.7200000000000095,7.761802365123938,0.40625040606211554,0.46069519016091254,1.9605315823676757,35.426443335633195,112.26983244188288,25.628854480184398,554.8580715028402,530.5482995539363,302.1882391922548,132.61351018881845,215.99580205571334,219.31253010968433,120.48396717367733,825.0252781445788,335.16938322794635
0,A3,0.5535294117647059,9.445294117647059,-0.8855882352941177,2.1935294117647053,2.593235294117647,1.2797058823529408,9.325882352941177,-27.21470588235294,-19.04735294117647,2.55,11.66,1.56,43.13,28.0,35.44,14.69,-22.87,-11.38,-1.86,7.5,-2.88,-43.06,-31.69,-28.44,3.06,-33.0,-26.75,3.690196078431373,62.96862745098039,-5.903921568627451,14.623529411764702,17.288235294117648,8.531372549019606,62.17254901960785,-181.4313725490196,-126.98235294117647,63.352362860797356,24.197417416155957,230.01584022648137,6.7617581465169145,14.263638437469297,6.058812531995372,99.68967859446224,74.80683340468164,77.76425061107332,18.77446482794897,39.08588006662556,38.02019259477945,18.82,321.13999999999993,30.11,333.10386248200064,195.84494054663864,219.59329698674082,317.08,925.3,647.6100000000001,1.120073241745643,0.8672149131182801,0.6028302494462203,4.800000000000017,19.37433934151723,26.863528221973453,1.8438988351536054,1.9702878254207459,4.953721177399416,45.0783876434461,95.09092291646198,40.39208354663582,664.597857296415,498.7122226978776,518.4283374071555,125.16309885299314,260.5725337775038,253.46795063186303,112.7202957185427,979.3733374040723,384.4604643799269
0,A8,-0.15083333333333332,7.635000000000001,-4.46,11.74,3.954166666666667,-0.42583333333333356,-7.308333333333334,-8.438333333333333,29.743333333333336,0.41,10.16,-0.75,133.69,21.69,18.0,-5.5,8.75,38.69,-1.38,4.32,-9.32,-142.56,-9.31,-28.56,-11.75,-25.06,25.0,-1.0055555555555555,50.900000000000006,-29.733333333333334,78.26666666666667,26.361111111111114,-2.8388888888888903,-48.72222222222223,-56.25555555555555,198.28888888888892,58.9566981189281,82.63557696444622,211.7947731317417,1.71387653297096,12.117662294004665,14.54302376088109,226.72543487107862,28.736362362314072,34.78675979469906,13.50136078073446,43.34000369040115,40.21409074627693,2.6899999999999995,91.62,53.519999999999996,475.2211408587056,47.45,59.8186918947581,87.69999999999999,101.25999999999999,356.92,1.030145620774073,0.8742997197757767,2.640000000000001,44.75999999999999,12.91171561025102,5.109999999999999,2.9400000000000035,25.01716897657294,1.7999999999999894,11.425843553139734,80.78441529336443,96.95349173920727,1511.5028991405243,191.5757490820938,231.9117319646604,90.00907187156307,288.93335793600767,268.09393830851286,126.71484212836367,1541.1441636555041,404.2999852895447
0,A8,-0.07583333333333335,8.52,-4.670833333333333,-12.036666666666667,0.8850000000000001,2.500833333333333,-6.839166666666666,-8.701666666666666,30.186666666666667,1.44,10.19,-0.9,117.31,25.25,12.44,-5.0,6.19,38.75,-0.46,4.95,-9.82,-151.38,-14.88,-10.06,-10.75,-20.87,24.06,-0.5055555555555556,56.8,-31.13888888888889,-80.24444444444445,5.900000000000001,16.67222222222222,-45.59444444444444,-58.01111111111111,201.24444444444447,64.77751143455822,82.17021271741173,214.34427633201756,1.6644437464868753,13.144340971381325,14.031882977215206,205.18498561856177,37.84764894254602,21.612724627495325,11.041605889544138,34.79018540451414,40.48616599618025,2.2387400624725293,102.24000000000001,56.05,291.7855301199909,58.483252303544134,36.20859980722812,82.07,104.42000000000002,362.24,0.91,3.2942373927815227,2.9299999999999997,38.759153920021205,10.620000000000001,10.583699821324146,2.617934572078622,8.083693462768121,2.3799999999999946,11.096291643245836,87.62893980920884,93.54588651476804,1367.8999041237453,252.3176596169735,144.08483084996885,73.61070593029426,231.9345693634276,269.90777330786835,128.65765295602037,1398.4186739089987,363.4038890619726
0,A7,-0.12695652173913044,8.761739130434782,-3.938695652173913,2.16,-0.2552173913043476,0.8169565217391306,-8.157391304347826,-11.943478260869565,30.299130434782608,0.31,12.95,0.37,56.81,15.63,22.62,-6.56,3.06,39.25,-0.79,6.58,-8.02,-87.25,-17.06,-7.88,-10.19,-24.0,21.19,-0.846376811594203,58.41159420289855,-26.257971014492757,14.400000000000002,-1.7014492753623176,5.446376811594204,-54.38260869565217,-79.62318840579711,201.99420289855072,64.04773011457344,15.48928500643274,223.8280104568469,1.5713573771027285,14.544982361358311,12.52663610295338,127.83770401496176,29.605382227047002,24.101607990105844,12.058473106440088,41.67093575152455,44.81151717454256,3.2919822436655646,201.52,90.58999999999999,351.0469385326042,54.484900705549265,47.686454748326064,187.62,274.70000000000005,696.88,0.3874767976471349,1.827264981036549,1.8010765451052577,26.876622560242513,5.869999999999995,6.766987317277494,0.9797530145649918,6.133825864970007,2.631427040683073,10.475715847351523,96.96654907572209,83.51090735302255,852.251360099745,197.36921484698001,160.67738660070563,80.38982070960058,277.80623834349706,298.74344783028374,128.399080639598,889.4403916654625,415.79619642056747
0,A7,0.10655172413793103,8.396206896551725,-3.6386206896551725,4.922413793103448,0.5017241379310347,-0.8579310344827588,-6.391034482758621,-12.071034482758622,29.770689655172415,0.98,10.06,1.16,75.06,11.38,10.44,-5.0,4.69,38.69,-0.43,5.67,-7.64,-93.31,-20.62,-8.88,-9.25,-33.75,20.06,0.7103448275862069,55.97471264367817,-24.25747126436782,32.816091954022994,3.3448275862068977,-5.719540229885059,-42.60689655172414,-80.47356321839081,198.4712643678161,61.008998987510466,33.47830496243227,218.36250774936894,2.0671967741220496,13.352431791952736,13.881850515322686,159.59621625043283,30.374895270403563,22.447355468691732,11.304415550034081,48.30621110503584,51.928382770545205,3.465676082346332,243.49,105.52,354.0441697182858,64.95581354341566,39.57890860513052,185.33999999999997,350.06,863.3499999999998,0.424002916889784,0.5693025791655512,1.7341168566865481,64.78543709124898,3.0174587470436736,4.619331738580387,1.594624636480326,5.612010296254684,3.79152390859132,13.781311827480332,89.01621194635158,92.54567010215125,1063.9747750028855,202.49930180269044,149.6490364579449,75.36277033356055,322.0414073669056,346.1892184703014,129.1453119537068,1093.3632164956937,478.78720763642417
0,A7,-0.4,9.107619047619048,-1.7176190476190476,5.259047619047619,4.241428571428571,-0.4176190476190476,-2.0004761904761903,-17.488095238095237,26.55047619047619,1.51,10.85,2.92,87.25,44.75,26.37,2.75,1.37,36.69,-2.3,7.58,-7.7,-56.56,-13.88,-12.25,-4.25,-33.19,15.25,-2.666666666666667,60.71746031746032,-11.450793650793651,35.060317460317464,28.276190476190475,-2.784126984126984,-13.336507936507935,-116.58730158730158,177.0031746031746,61.845305187593155,45.127820369787315,212.3689835050092,3.429662924526632,12.252817033653471,12.413002849477689,137.01533707117423,58.953643312892936,35.019191920561646,9.685199905448851,51.94732526086192,50.18969402637427,8.4,191.26,36.07,404.8852745907599,105.76081363151476,69.1057849259946,42.010000000000005,367.25,557.56,1.535832728603766,0.31502925076524574,2.48636670526818,12.237573767767108,24.68873856804149,8.77,1.408651837751259,8.764402817258803,7.519932106240013,22.864419496844214,81.68544689102315,82.75335232985127,913.4355804744949,393.0242887526196,233.46127947041097,64.567999369659,346.3155017390795,334.59796017582846,118.5048996225149,1021.4386032641617,485.85928852005696
0,A7,-0.235,8.913076923076924,-1.8649999999999998,0.03730769230769308,1.159230769230769,-1.0496153846153844,-5.902692307692307,-16.86653846153846,28.111153846153847,1.61,12.46,1.95,107.37,36.38,27.87,1.69,13.75,38.38,-1.65,5.09,-9.98,-95.56,-56.13,-38.75,-8.38,-31.37,20.19,-1.5666666666666667,59.420512820512826,-12.433333333333332,0.24871794871795389,7.728205128205127,-6.997435897435897,-39.35128205128205,-112.44358974358974,187.40769230769232,60.72758488590627,10.428380711325945,222.0669435318975,3.491689827506936,15.69765238411248,12.793324256480151,185.77546987260544,74.31485398700842,55.01304934588182,15.692674222863673,56.51801717875572,42.95326158588342,6.471346597019825,231.73999999999998,53.15170302791282,633.9791867171817,151.53993608650362,92.77481510874128,153.47,438.53000000000003,730.89,1.15,1.1800000000000037,1.2876324074699257,0.9700000000000113,15.500000000000007,27.289999999999996,0.953651976566225,0.26283827880039345,0.7499999999999976,23.277932183379573,104.6510158940832,85.28882837653434,1238.5031324840363,495.43235991338946,366.7536623058788,104.6178281524245,376.7867811917048,286.3550772392228,136.99591782326803,1383.4202113735707,484.677623486805
0,A8,-0.7555555555555555,8.398888888888889,-1.1155555555555554,7.035555555555554,1.5622222222222217,-1.7766666666666664,-6.062222222222222,-15.131111111111112,26.712222222222223,1.55,13.18,2.66,193.63,32.69,12.25,-2.06,-0.5,33.25,-2.21,3.45,-7.14,-117.87,-17.19,-17.31,-11.06,-28.75,20.87,-5.037037037037037,55.992592592592594,-7.437037037037037,46.9037037037037,10.414814814814813,-11.844444444444443,-40.41481481481482,-100.87407407407409,178.0814814814815,56.70847985304137,49.48450922207115,208.61915090292356,3.3308267135180287,15.380384343033382,8.940814715261903,235.7588538279956,36.84419953561683,24.026739162729935,12.299741501466169,33.65518701982044,38.43513281350786,6.8,75.58999999999999,13.338723281693827,481.0077346594979,68.75565428870297,45.009954102738895,54.56,136.18,240.41000000000003,0.9869582659048328,2.072395963698425,5.923501045788484,63.31999999999999,14.059999999999997,12.81,0.703340580142804,4.582989942166318,7.696948542657643,22.205511423453526,102.53589562022255,59.60543143507935,1571.7256921866374,245.62799690411222,160.17826108486625,81.99827667644114,224.3679134654696,256.2342187567191,120.66276179824595,1598.8470344804293,350.315076513445
0,A8,-0.3614285714285714,8.849285714285715,-1.0492857142857142,6.677857142857143,2.6471428571428572,-0.5357142857142856,-6.316428571428572,-17.200714285714287,26.455000000000002,1.1,13.14,2.65,184.19,49.31,36.38,0.25,2.25,36.38,-2.2,2.4,-7.69,-121.94,-29.12,-30.75,-11.19,-29.5,20.75,-2.4095238095238094,58.9952380952381,-6.995238095238094,44.519047619047626,17.64761904761905,-3.5714285714285707,-42.109523809523814,-114.67142857142859,176.36666666666667,59.45735681067201,48.022277757283995,214.54125392844196,3.2674783050108434,16.691931120063856,10.268124866787621,258.33797326437514,66.77297576772914,46.075704549426,15.931027072355004,44.91654968551201,38.44034144001838,8.12,123.89,28.308892457805698,487.33097568737423,119.24327507451305,79.14250572854904,88.43,240.81,370.37,1.233278969263244,1.3463405918510685,0.6300000000000003,43.329997882713315,16.500247490576527,4.197761975171398,0.6515468075390622,3.3805527373006514,0.770000000000004,21.78318870007229,111.2795408004257,68.45416577858414,1722.2531550958342,445.15317178486094,307.17136366284,106.20684714903336,299.4436645700801,256.2689429334559,132.45231716787157,1805.179083426951,408.19134452451055
0,A3,-0.12449999999999999,10.020999999999999,0.4535,-1.8175000000000003,9.05,-1.8944999999999996,13.494,-15.239500000000001,-22.44,1.87,16.05,2.46,67.69,44.88,42.75,18.37,-10.75,-6.69,-2.44,6.28,-2.19,-59.56,-17.56,-37.19,8.38,-22.0,-29.06,-0.83,66.80666666666666,3.0233333333333334,-12.116666666666669,60.33333333333334,-12.629999999999997,89.96000000000001,-101.59666666666668,-149.60000000000002,66.88019255022786,62.82071013783769,201.9773360498098,4.20463545490861,18.14166184363343,4.631005342025619,118.0411231313908,78.7454452669667,69.21006869608173,23.910100290558358,25.676271111883864,44.45006534080031,13.014408461378794,200.42000000000002,10.691301615068094,258.13900166733583,181.0,253.67949216483717,269.88,304.79,448.8,0.31885289782676335,2.278830544557635,0.44999999999999973,29.878300396048672,14.557368947211463,11.64177201186886,4.518517455980444,1.0500000000000005,9.617535196942356,28.03090303272407,120.94441229088953,30.873368946837463,786.9408208759387,524.9696351131114,461.40045797387825,159.40066860372238,171.17514074589243,296.33376893866875,127.93141638919738,1052.501475519248,377.52245572162474
0,A3,-0.3261538461538462,10.004615384615384,0.5388461538461539,1.880384615384615,11.368076923076924,3.516538461538462,14.728076923076923,-20.570769230769233,-22.732307692307693,2.33,13.86,3.1,74.37,100.75,40.5,23.19,-16.25,-2.0,-2.87,6.6,-1.63,-46.63,-41.38,-37.56,8.5,-24.37,-29.69,-2.1743589743589746,66.6974358974359,3.5923076923076924,12.535897435897434,75.7871794871795,23.443589743589747,98.18717948717949,-137.13846153846157,-151.54871794871795,66.82948800341177,80.31467611346663,226.74808435945778,5.722242123064594,18.50681611630244,5.082396563047183,139.69232052780535,158.54894101423676,96.63480664393836,26.76421557017072,29.830761913933692,51.093581172024535,15.83688513072359,260.12,16.098199648766684,342.021398432777,295.57,251.73058943723944,382.93,534.84,591.04,1.412266007686795,1.5431275933274475,2.016880516071684,48.889999999999986,53.934079134389705,38.78167519717816,1.3612083008688243,0.4999999999999978,9.440000000000005,38.14828082043063,123.37877410868293,33.88264375364789,931.2821368520357,1056.9929400949118,644.2320442929224,178.42810380113815,198.8717460928913,340.6238744801636,133.51272140830798,1549.049844493074,432.9101332678451
0,A16,-0.2504347826086956,9.714782608695652,2.046521739130435,2.0573913043478256,-12.125652173913043,-2.8121739130434786,-8.368260869565217,-27.661739130434785,18.28217391304348,3.34,15.63,3.18,111.62,21.56,38.19,24.37,-24.75,22.75,-1.81,3.97,-0.18,-52.75,-81.62,-36.75,-16.06,-30.56,13.25,-1.6695652173913043,64.76521739130435,13.643478260869566,13.715942028985504,-80.83768115942028,-18.747826086956525,-55.788405797101454,-184.41159420289858,121.88115942028986,66.207743737518,84.10908835531005,227.98026081104194,5.309439014512725,21.813175094371186,5.880263915999131,155.92988794243024,127.28900303561346,91.53738136842985,49.116430401505895,32.977025160178044,27.449664411564523,8.772852197266541,223.43999999999997,47.07,336.9323916426044,337.18891808458085,170.2099234220211,192.47,636.2200000000001,420.49,2.1308448070749635,1.9381311177070122,0.7083892259947077,38.791060448513775,66.94629806428944,12.162373414806341,19.183770137006043,0.6202854940994139,1.078706954177134,35.3962600967515,145.42116729580792,39.201759439994206,1039.5325862828684,848.5933535707564,610.2492091228656,327.44286934337265,219.84683440118698,182.9977627437635,154.71583328704082,1474.158327624104,434.78689544335015
0,A16,0.02954545454545452,10.189545454545454,1.6622727272727273,3.0768181818181817,-9.562272727272727,-4.029545454545454,-10.242727272727272,-28.174545454545456,18.709545454545456,2.51,16.41,3.43,77.25,30.12,21.62,0.37,-24.87,22.37,-3.49,5.44,0.25,-80.69,-65.12,-44.69,-16.69,-31.87,13.06,0.19696969696969682,67.93030303030304,11.081818181818182,20.51212121212121,-63.74848484848485,-26.863636363636363,-68.28484848484848,-187.83030303030304,124.73030303030305,68.8285664609194,72.15449671209649,235.58584796860234,6.102232332464806,21.858170868447953,5.535398311726348,144.9445504268845,102.41676108291713,63.81366118841716,27.21641265284186,34.771992073060744,27.28187249489595,10.479334193639076,224.17000000000002,36.57000000000001,223.26399228780946,210.37,181.2843015713139,225.34,619.84,411.61,0.6500000000000004,4.550000000000001,2.2861974486800545,52.8667841137353,46.11107198092517,18.0977612810243,0.6799999999999979,1.099999999999993,2.0560096742706646,40.681548883098706,145.72113912298636,36.90265541150899,966.2970028458966,682.7784072194476,425.4244079227811,181.44275101894576,231.81328048707164,181.879149965973,155.72875387432234,1257.3393248962418,346.03308237774866
